,signal_present,signal_type,trial_num,button_position,subject_number,responses,rt,correct_resp
0,1,60,0,right,pj787,1,4410.473,1
1,1,10,1,right,pj787,1,3769.479,1
2,1,10,2,right,pj787,0,4048.774,0
3,1,15,3,right,pj787,0,1727.3640000000000,0
4,0,0,4,right,pj787,0,1528.2530000000000,1
5,1,60,5,right,pj787,1,1544.0740000000000,1
6,0,0,6,right,pj787,0,4554.719,1
7,1,60,7,right,pj787,1,1181.924,1
8,1,25,8,right,pj787,1,747.765,1
9,1,15,9,right,pj787,0,2062.826,0
10,0,0,10,right,pj787,0,23556.895,1
11,0,0,11,right,pj787,0,9852.036,1
12,0,0,12,right,pj787,0,933.273,1
13,0,0,13,right,pj787,0,926.2660000000000,1
14,1,15,14,right,pj787,0,1255.396,0
15,1,10,15,right,pj787,0,1286.564,0
16,0,0,16,right,pj787,0,848.964,1
17,0,0,17,right,pj787,0,1935.234,1
18,0,0,18,right,pj787,0,1870.2060000000000,1
19,0,0,19,right,pj787,0,1448.155,1
20,1,25,20,right,pj787,1,6233.350000000000,1
21,0,0,21,right,pj787,0,1967.573,1
22,0,0,22,right,pj787,0,2369.35,1
23,1,60,23,right,pj787,1,918.311,1
24,1,60,24,right,pj787,1,805.192,1
25,0,0,25,right,pj787,0,1540.6980000000000,1
26,1,60,26,right,pj787,1,1288.083,1
27,1,10,27,right,pj787,0,1571.348,0
28,1,60,28,right,pj787,1,1060.781,1
29,0,0,29,right,pj787,0,2890.456,1
30,1,15,30,right,pj787,0,1400.833,0
31,1,25,31,right,pj787,1,2526.338,1
32,0,0,32,right,pj787,0,94961.859,1
33,0,0,33,right,pj787,0,923.067,1
34,0,0,34,right,pj787,0,989.577,1
35,1,60,35,right,pj787,1,1401.275,1
36,1,25,36,right,pj787,1,1411.854,1
37,1,25,37,right,pj787,1,830.7560000000000,1
38,0,0,38,right,pj787,0,1430.6460000000000,1
39,1,10,39,right,pj787,0,1081.755,0
40,0,0,40,right,pj787,0,1059.7510000000000,1
41,1,25,41,right,pj787,1,1594.7720000000000,1
42,1,25,42,right,pj787,1,966.469,1
43,1,60,43,right,pj787,1,1058.187,1
44,1,10,44,right,pj787,0,4279.064,0
45,1,25,45,right,pj787,0,1228.271,0
46,1,25,46,right,pj787,1,1297.652,1
47,0,0,47,right,pj787,1,1882.179,0
48,0,0,48,right,pj787,0,2831.5190000000000,1
49,0,0,49,right,pj787,0,6167.16,1
50,1,10,50,right,pj787,0,3710.086,0
51,1,25,51,right,pj787,0,1501.719,0
52,0,0,52,right,pj787,0,1033.088,1
53,0,0,53,right,pj787,0,957.345,1
54,1,25,54,right,pj787,1,1238.716,1
55,0,0,55,right,pj787,0,1907.556,1
56,0,0,56,right,pj787,0,1956.363,1
57,0,0,57,right,pj787,0,1330.451,1
58,0,0,58,right,pj787,0,919.274,1
59,1,25,59,right,pj787,1,2003.5730000000000,1
60,1,10,60,right,pj787,0,1369.957,0
61,1,15,61,right,pj787,0,1844.501,0
62,1,15,62,right,pj787,0,1391.817,0
63,1,15,63,right,pj787,0,2313.056,0
64,0,0,64,right,pj787,0,2699.27,1
65,1,10,65,right,pj787,0,1244.132,0
66,0,0,66,right,pj787,0,1800.75,1
67,0,0,67,right,pj787,0,980.847,1
68,1,60,68,right,pj787,1,1440.981,1
69,0,0,69,right,pj787,0,1278.9950000000000,1
70,1,60,70,right,pj787,1,942.065,1
71,0,0,71,right,pj787,0,1332.009,1
72,0,0,72,right,pj787,0,1172.7430000000000,1
73,0,0,73,right,pj787,0,1577.15,1
74,1,10,74,right,pj787,0,1419.12,0
75,1,15,75,right,pj787,1,1671.8310000000000,1
76,1,10,76,right,pj787,0,1294.687,0
77,0,0,77,right,pj787,0,1106.828,1
78,0,0,78,right,pj787,0,1324.861,1
79,1,25,79,right,pj787,1,1253.242,1
80,0,0,80,right,pj787,1,3490.809,0
81,1,60,81,right,pj787,1,2780.8830000000000,1
82,0,0,82,right,pj787,0,1376.183,1
83,0,0,83,right,pj787,0,4952.9490000000000,1
84,0,0,84,right,pj787,0,1767.124,1
85,0,0,85,right,pj787,0,1999.105,1
86,1,15,86,right,pj787,1,1357.2040000000000,1
87,1,25,87,right,pj787,1,1359.378,1
88,1,10,88,right,pj787,0,2865.031,0
89,1,60,89,right,pj787,1,997.623,1
90,0,0,90,right,pj787,0,6536.324,1
91,0,0,91,right,pj787,0,1752.0420000000000,1
92,0,0,92,right,pj787,0,1527.0790000000000,1
93,1,25,93,right,pj787,1,1459.8770000000000,1
94,1,60,94,right,pj787,1,1132.9340000000000,1
95,1,10,95,right,pj787,0,2015.117,0
96,0,0,96,right,pj787,0,2631.598,1
97,0,0,97,right,pj787,0,1562.98,1
98,0,0,98,right,pj787,0,2531.3670000000000,1
99,0,0,99,right,pj787,0,2513.111,1
100,0,0,100,right,pj787,0,2221.7980000000000,1
101,0,0,101,right,pj787,0,1594.3590000000000,1
102,1,25,102,right,pj787,1,4178.4220000000000,1
103,0,0,103,right,pj787,0,1424.162,1
104,1,10,104,right,pj787,0,1322.996,0
105,1,15,105,right,pj787,0,1685.689,0
106,1,15,106,right,pj787,0,1592.838,0
107,0,0,107,right,pj787,0,1486.968,1
108,1,15,108,right,pj787,0,1421.6030000000000,0
109,0,0,109,right,pj787,0,1164.0350000000000,1
110,0,0,110,right,pj787,0,983.409,1
111,1,10,111,right,pj787,0,1386.141,0
112,0,0,112,right,pj787,0,1276.2550000000000,1
113,0,0,113,right,pj787,0,943.2820000000000,1
114,0,0,114,right,pj787,0,4259.887,1
115,0,0,115,right,pj787,0,1356.112,1
116,0,0,116,right,pj787,0,1831.922,1
117,1,25,117,right,pj787,1,1911.199,1
118,0,0,118,right,pj787,0,2251.212,1
119,1,60,119,right,pj787,1,1234.247,1
120,0,0,120,right,pj787,0,1094.212,1
121,0,0,121,right,pj787,0,1138.544,1
122,1,25,122,right,pj787,0,784.566,0
123,0,0,123,right,pj787,0,864.7810000000000,1
124,1,60,124,right,pj787,1,1365.233,1
125,0,0,125,right,pj787,0,1543.0230000000000,1
126,1,10,126,right,pj787,0,1787.254,0
127,1,15,127,right,pj787,0,656.807,0
128,0,0,128,right,pj787,0,798.375,1
129,0,0,129,right,pj787,0,653.965,1
130,0,0,130,right,pj787,0,678.226,1
131,1,25,131,right,pj787,0,520.99,0
132,1,60,132,right,pj787,1,1369.9670000000000,1
133,1,25,133,right,pj787,1,1607.191,1
134,0,0,134,right,pj787,0,1545.123,1
135,1,60,135,right,pj787,1,1670.855,1
136,0,0,136,right,pj787,0,2059.342,1
137,1,10,137,right,pj787,0,1364.009,0
138,0,0,138,right,pj787,0,2125.053,1
139,1,15,139,right,pj787,0,1137.0850000000000,0
140,0,0,140,right,pj787,0,1547.239,1
141,0,0,141,right,pj787,0,3614.895,1
142,0,0,142,right,pj787,0,3688.212,1
143,0,0,143,right,pj787,0,1811.901,1
144,0,0,144,right,pj787,0,1395.8,1
145,0,0,145,right,pj787,0,1874.568,1
146,0,0,146,right,pj787,1,4107.255,0
147,0,0,147,right,pj787,0,1744.897,1
148,1,10,148,right,pj787,0,1457.424,0
149,1,15,149,right,pj787,0,1021.0840000000000,0
150,1,25,150,right,pj787,1,2871.939,1
151,1,10,151,right,pj787,0,3277.701,0
152,1,60,152,right,pj787,1,1192.532,1
153,1,10,153,right,pj787,0,1469.061,0
154,1,15,154,right,pj787,0,865.8820000000000,0
155,0,0,155,right,pj787,0,607.7900000000000,1
156,0,0,156,right,pj787,0,589.357,1
157,0,0,157,right,pj787,0,10995.373000000000,1
158,0,0,158,right,pj787,0,1282.6960000000000,1
159,1,25,159,right,pj787,1,2788.165,1
160,1,15,160,right,pj787,0,39549.401000000000,0
161,0,0,161,right,pj787,0,2282.145,1
162,1,60,162,right,pj787,1,1585.4480000000000,1
163,0,0,163,right,pj787,0,1418.011,1
164,1,60,164,right,pj787,1,1095.889,1
165,0,0,165,right,pj787,0,1251.315,1
166,1,10,166,right,pj787,0,1449.827,0
167,0,0,167,right,pj787,0,1145.728,1
168,0,0,168,right,pj787,0,1206.207,1
169,1,15,169,right,pj787,1,3576.2620000000000,1
170,0,0,170,right,pj787,0,1400.599,1
171,0,0,171,right,pj787,0,1095.904,1
172,0,0,172,right,pj787,0,1429.493,1
173,0,0,173,right,pj787,0,1689.661,1
174,1,60,174,right,pj787,1,1045.702,1
175,0,0,175,right,pj787,0,1157.689,1
176,0,0,176,right,pj787,0,699.3190000000000,1
177,1,15,177,right,pj787,0,1556.016,0
178,0,0,178,right,pj787,0,1235.1490000000000,1
179,1,25,179,right,pj787,1,2339.065,1
180,1,25,180,right,pj787,1,2749.964,1
181,1,15,181,right,pj787,0,1197.3100000000000,0
182,1,10,182,right,pj787,0,4052.505,0
183,0,0,183,right,pj787,0,2056.487,1
184,0,0,184,right,pj787,0,1251.489,1
185,1,15,185,right,pj787,1,2960.854,1
186,1,10,186,right,pj787,0,1245.832,0
187,1,60,187,right,pj787,1,1171.202,1
188,1,15,188,right,pj787,1,4712.918000000000,1
189,0,0,189,right,pj787,0,1561.697,1
190,0,0,190,right,pj787,0,1607.27,1
191,1,10,191,right,pj787,0,2435.0640000000000,0
192,1,10,192,right,pj787,0,2070.248,0
193,1,15,193,right,pj787,0,1692.6200000000000,0
194,1,60,194,right,pj787,1,1305.9960000000000,1
195,1,15,195,right,pj787,0,1177.768,0
196,0,0,196,right,pj787,0,739.639,1
197,1,60,197,right,pj787,1,1112.3230000000000,1
198,1,15,198,right,pj787,1,3679.258,1
199,1,25,199,right,pj787,1,1190.163,1