,signal_present,signal_type,trial_num,button_position,subject_number,responses,rt,correct_resp
0,1,60,0,left,wx556,1,2779.201,1
1,1,10,1,left,wx556,0,1412.21,0
2,1,10,2,left,wx556,1,18764.0,1
3,1,15,3,left,wx556,0,870.463,0
4,0,0,4,left,wx556,1,766.891,0
5,1,60,5,left,wx556,0,751.668,0
6,0,0,6,left,wx556,1,910.937,0
7,1,60,7,left,wx556,0,755.239,0
8,1,25,8,left,wx556,1,739.777,1
9,1,15,9,left,wx556,0,564.939,0
10,0,0,10,left,wx556,1,529.435,0
11,0,0,11,left,wx556,0,435.53700000000003,1
12,0,0,12,left,wx556,1,534.25,0
13,0,0,13,left,wx556,0,476.4,1
14,1,15,14,left,wx556,1,367.859,1
15,1,10,15,left,wx556,0,282.222,0
16,0,0,16,left,wx556,1,888.033,0
17,0,0,17,left,wx556,0,489.445,1
18,0,0,18,left,wx556,1,824.635,0
19,0,0,19,left,wx556,0,837.367,1
20,1,25,20,left,wx556,1,984.81,1
21,0,0,21,left,wx556,0,1124.2179999999998,1
22,0,0,22,left,wx556,1,762.143,0
23,1,60,23,left,wx556,0,354.18300000000005,0
24,1,60,24,left,wx556,1,505.702,1
25,0,0,25,left,wx556,0,369.389,1
26,1,60,26,left,wx556,1,8743.562,1
27,1,10,27,left,wx556,0,681.944,0
28,1,60,28,left,wx556,1,568.8069999999999,1
29,0,0,29,left,wx556,0,798.145,1
30,1,15,30,left,wx556,1,629.445,1
31,1,25,31,left,wx556,0,569.3240000000001,0
32,0,0,32,left,wx556,1,716.3779999999999,0
33,0,0,33,left,wx556,0,390.898,1
34,0,0,34,left,wx556,1,565.093,0
35,1,60,35,left,wx556,0,622.771,0
36,1,25,36,left,wx556,1,505.812,1
37,1,25,37,left,wx556,0,602.5129999999999,0
38,0,0,38,left,wx556,1,1274.214,0
39,1,10,39,left,wx556,0,769.1980000000001,0
40,0,0,40,left,wx556,1,785.759,0
41,1,25,41,left,wx556,0,584.054,0
42,1,25,42,left,wx556,1,710.936,1
43,1,60,43,left,wx556,0,1193.441,0
44,1,10,44,left,wx556,1,701.348,1
45,1,25,45,left,wx556,0,695.4820000000001,0
46,1,25,46,left,wx556,1,5919.353,1
47,0,0,47,left,wx556,0,969.024,1
48,0,0,48,left,wx556,1,28385.772,0
49,0,0,49,left,wx556,0,684.519,1
50,1,10,50,left,wx556,1,1233.68,1
51,1,25,51,left,wx556,0,991.974,0
52,0,0,52,left,wx556,1,89091.487,0
53,0,0,53,left,wx556,0,750.112,1
54,1,25,54,left,wx556,1,1673.87,1
55,0,0,55,left,wx556,0,847.3439999999999,1
56,0,0,56,left,wx556,1,903.627,0
57,0,0,57,left,wx556,0,1146.577,1
58,0,0,58,left,wx556,1,4083.475,0
59,1,25,59,left,wx556,0,571.083,0
60,1,10,60,left,wx556,1,3994.939,1
61,1,15,61,left,wx556,0,658.682,0
62,1,15,62,left,wx556,1,1361.69,1
63,1,15,63,left,wx556,0,758.0120000000001,0
64,0,0,64,left,wx556,1,1002.609,0
65,1,10,65,left,wx556,1,10723.329,1
66,0,0,66,left,wx556,0,776.476,1
67,0,0,67,left,wx556,1,979.623,0
68,1,60,68,left,wx556,0,429.77,0
69,0,0,69,left,wx556,1,462.13100000000003,0
70,1,60,70,left,wx556,0,736.028,0
71,0,0,71,left,wx556,1,512.3140000000001,0
72,0,0,72,left,wx556,0,507.62700000000007,1
73,0,0,73,left,wx556,1,368.274,0
74,1,10,74,left,wx556,0,444.716,0
75,1,15,75,left,wx556,1,399.46500000000003,1
76,1,10,76,left,wx556,0,437.832,0
77,0,0,77,left,wx556,1,586.0,0
78,0,0,78,left,wx556,0,378.671,1
79,1,25,79,left,wx556,1,521.456,1
80,0,0,80,left,wx556,1,83.68599999999999,0
81,1,60,81,left,wx556,0,423.385,0
82,0,0,82,left,wx556,1,392.16499999999996,0
83,0,0,83,left,wx556,0,611.738,1
84,0,0,84,left,wx556,1,344.159,0
85,0,0,85,left,wx556,0,614.722,1
86,1,15,86,left,wx556,1,314.806,1
87,1,25,87,left,wx556,0,675.9340000000001,0
88,1,10,88,left,wx556,1,824.306,1
89,1,60,89,left,wx556,0,1159.817,0
90,0,0,90,left,wx556,1,578.545,0
91,0,0,91,left,wx556,0,525.5840000000001,1
92,0,0,92,left,wx556,1,394.907,0
93,1,25,93,left,wx556,0,403.408,0
94,1,60,94,left,wx556,1,341.62,1
95,1,10,95,left,wx556,0,561.615,0
96,0,0,96,left,wx556,1,337.226,0
97,0,0,97,left,wx556,0,362.721,1
98,0,0,98,left,wx556,1,586.373,0
99,0,0,99,left,wx556,0,454.503,1
100,0,0,100,left,wx556,1,360.966,0
101,0,0,101,left,wx556,0,463.177,1
102,1,25,102,left,wx556,1,530.7349999999999,1
103,0,0,103,left,wx556,0,400.731,1
104,1,10,104,left,wx556,1,418.525,1
105,1,15,105,left,wx556,0,732.088,0
106,1,15,106,left,wx556,1,525.9979999999999,1
107,0,0,107,left,wx556,0,541.885,1
108,1,15,108,left,wx556,1,502.474,1
109,0,0,109,left,wx556,0,441.605,1
110,0,0,110,left,wx556,1,449.17400000000004,0
111,1,10,111,left,wx556,0,471.702,0
112,0,0,112,left,wx556,1,254.75900000000001,0
113,0,0,113,left,wx556,0,391.575,1
114,0,0,114,left,wx556,1,500.0559999999999,0
115,0,0,115,left,wx556,0,397.548,1
116,0,0,116,left,wx556,1,360.506,0
117,1,25,117,left,wx556,0,412.518,0
118,0,0,118,left,wx556,1,5951.671,0
119,1,60,119,left,wx556,0,440.57,0
120,0,0,120,left,wx556,1,417.606,0
121,0,0,121,left,wx556,0,612.9259999999999,1
122,1,25,122,left,wx556,1,438.687,1
123,0,0,123,left,wx556,0,421.776,1
124,1,60,124,left,wx556,1,566.828,1
125,0,0,125,left,wx556,0,697.972,1
126,1,10,126,left,wx556,1,385.641,1
127,1,15,127,left,wx556,0,465.575,0
128,0,0,128,left,wx556,1,354.599,0
129,0,0,129,left,wx556,0,440.216,1
130,0,0,130,left,wx556,1,829.41,0
131,1,25,131,left,wx556,0,629.445,0
132,1,60,132,left,wx556,1,438.15,1
133,1,25,133,left,wx556,0,316.517,0
134,0,0,134,left,wx556,1,653.061,0
135,1,60,135,left,wx556,0,633.577,0
136,0,0,136,left,wx556,1,321.813,0
137,1,10,137,left,wx556,0,364.944,0
138,0,0,138,left,wx556,1,284.325,0
139,1,15,139,left,wx556,0,461.209,0
140,0,0,140,left,wx556,1,475.866,0
141,0,0,141,left,wx556,0,542.873,1
142,0,0,142,left,wx556,1,387.928,0
143,0,0,143,left,wx556,0,380.19599999999997,1
144,0,0,144,left,wx556,1,394.11400000000003,0
145,0,0,145,left,wx556,0,598.091,1
146,0,0,146,left,wx556,1,422.867,0
147,0,0,147,left,wx556,0,434.88300000000004,1
148,1,10,148,left,wx556,1,664.064,1
149,1,15,149,left,wx556,0,452.748,0
150,1,25,150,left,wx556,1,335.126,1
151,1,10,151,left,wx556,0,478.8,0
152,1,60,152,left,wx556,1,357.26599999999996,1
153,1,10,153,left,wx556,0,350.832,0
154,1,15,154,left,wx556,1,332.356,1
155,0,0,155,left,wx556,0,525.7389999999999,1
156,0,0,156,left,wx556,1,361.733,0
157,0,0,157,left,wx556,0,512.961,1
158,0,0,158,left,wx556,1,530.455,0
159,1,25,159,left,wx556,0,334.47900000000004,0
160,1,15,160,left,wx556,1,529.3050000000001,1
161,0,0,161,left,wx556,0,756.946,1
162,1,60,162,left,wx556,1,412.41,1
163,0,0,163,left,wx556,0,332.632,1
164,1,60,164,left,wx556,1,361.43399999999997,1
165,0,0,165,left,wx556,0,332.316,1
166,1,10,166,left,wx556,1,719.5409999999999,1
167,0,0,167,left,wx556,0,537.566,1
168,0,0,168,left,wx556,1,857.375,0
169,1,15,169,left,wx556,0,938.703,0
170,0,0,170,left,wx556,1,663.89,0
171,0,0,171,left,wx556,0,462.048,1
172,0,0,172,left,wx556,1,575.553,0
173,0,0,173,left,wx556,0,534.574,1
174,1,60,174,left,wx556,1,383.749,1
175,0,0,175,left,wx556,0,456.504,1
176,0,0,176,left,wx556,1,687.764,0
177,1,15,177,left,wx556,0,469.183,0
178,0,0,178,left,wx556,1,488.031,0
179,1,25,179,left,wx556,0,369.17699999999996,0
180,1,25,180,left,wx556,1,453.702,1
181,1,15,181,left,wx556,0,531.105,0
182,1,10,182,left,wx556,1,383.96000000000004,1
183,0,0,183,left,wx556,0,356.942,1
184,0,0,184,left,wx556,1,399.75899999999996,0
185,1,15,185,left,wx556,0,431.04900000000004,0
186,1,10,186,left,wx556,1,521.959,1
187,1,60,187,left,wx556,0,401.69500000000005,0
188,1,15,188,left,wx556,1,452.792,1
189,0,0,189,left,wx556,0,850.964,1
190,0,0,190,left,wx556,1,457.814,0
191,1,10,191,left,wx556,0,494.39,0
192,1,10,192,left,wx556,0,10162.376,0
193,1,15,193,left,wx556,0,1709.792,0
194,1,60,194,left,wx556,1,2305.859,1
195,1,15,195,left,wx556,0,2119.21,0
196,0,0,196,left,wx556,0,1398.43,1
197,1,60,197,left,wx556,1,2242.784,1
198,1,15,198,left,wx556,0,1756.662,0
199,1,25,199,left,wx556,0,1539.634,0
