,signal_present,signal_type,trial_num,button_position,subject_number,responses,rt,correct_resp
0,1,60,0,left,tg35,0,3252.472,0
1,1,10,1,left,tg35,1,1504.471,1
2,1,10,2,left,tg35,1,1864.182,1
3,1,15,3,left,tg35,0,37.681,0
4,0,0,4,left,tg35,1,168.09099999999998,0
5,1,60,5,left,tg35,1,54.482,1
6,0,0,6,left,tg35,0,528411.336,1
7,1,60,7,left,tg35,1,2325.8399999999997,1
8,1,25,8,left,tg35,1,2745.981,1
9,1,15,9,left,tg35,1,2733.997,1
10,0,0,10,left,tg35,0,2626.2560000000003,1
11,0,0,11,left,tg35,0,3356.0660000000003,1
12,0,0,12,left,tg35,0,1917.448,1
13,0,0,13,left,tg35,0,1571.473,1
14,1,15,14,left,tg35,0,2105.9809999999998,0
15,1,10,15,left,tg35,0,1896.62,0
16,0,0,16,left,tg35,0,1905.268,1
17,0,0,17,left,tg35,0,2056.706,1
18,0,0,18,left,tg35,0,25226.308,1
19,0,0,19,left,tg35,0,3673.475,1
20,1,25,20,left,tg35,0,2846.286,0
21,0,0,21,left,tg35,0,1414.2250000000001,1
22,0,0,22,left,tg35,0,1258.488,1
23,1,60,23,left,tg35,1,2218.118,1
24,1,60,24,left,tg35,1,2065.79,1
25,0,0,25,left,tg35,0,2041.4699999999998,1
26,1,60,26,left,tg35,1,1695.178,1
27,1,10,27,left,tg35,0,4939.942,0
28,1,60,28,left,tg35,1,2063.274,1
29,0,0,29,left,tg35,0,6023.558999999999,1
30,1,15,30,left,tg35,0,1811.164,0
31,1,25,31,left,tg35,0,1207.0939999999998,0
32,0,0,32,left,tg35,0,2044.54,1
33,0,0,33,left,tg35,0,1849.1580000000001,1
34,0,0,34,left,tg35,0,1321.844,1
35,1,60,35,left,tg35,1,2227.6319999999996,1
36,1,25,36,left,tg35,0,1378.021,0
37,1,25,37,left,tg35,1,1597.8980000000001,1
38,0,0,38,left,tg35,0,1191.7,1
39,1,10,39,left,tg35,0,4664.323,0
40,0,0,40,left,tg35,0,1722.357,1
41,1,25,41,left,tg35,1,2745.559,1
42,1,25,42,left,tg35,1,2849.843,1
43,1,60,43,left,tg35,1,1765.094,1
44,1,10,44,left,tg35,0,1519.2730000000001,0
45,1,25,45,left,tg35,0,1144.83,0
46,1,25,46,left,tg35,1,2446.433,1
47,0,0,47,left,tg35,0,1574.362,1
48,0,0,48,left,tg35,0,1489.7450000000001,1
49,0,0,49,left,tg35,0,1329.581,1
50,1,10,50,left,tg35,0,1489.118,0
51,1,25,51,left,tg35,0,1405.491,0
52,0,0,52,left,tg35,0,1292.805,1
53,0,0,53,left,tg35,0,1562.22,1
54,1,25,54,left,tg35,1,5369.875,1
55,0,0,55,left,tg35,0,1389.23,1
56,0,0,56,left,tg35,0,1820.006,1
57,0,0,57,left,tg35,0,6581.405,1
58,0,0,58,left,tg35,0,1896.614,1
59,1,25,59,left,tg35,0,1648.8220000000001,0
60,1,10,60,left,tg35,0,1264.309,0
61,1,15,61,left,tg35,0,1431.0210000000002,0
62,1,15,62,left,tg35,0,1157.098,0
63,1,15,63,left,tg35,0,1090.249,0
64,0,0,64,left,tg35,0,1171.3709999999999,1
65,1,10,65,left,tg35,0,965.937,0
66,0,0,66,left,tg35,0,793.969,1
67,0,0,67,left,tg35,0,889.363,1
68,1,60,68,left,tg35,0,859.382,0
69,0,0,69,left,tg35,0,1856.139,1
70,1,60,70,left,tg35,1,1874.5210000000002,1
71,0,0,71,left,tg35,0,1825.3980000000001,1
72,0,0,72,left,tg35,0,31245.886,1
73,0,0,73,left,tg35,0,1728.517,1
74,1,10,74,left,tg35,0,1860.887,0
75,1,15,75,left,tg35,0,2342.005,0
76,1,10,76,left,tg35,0,1313.57,0
77,0,0,77,left,tg35,0,1285.284,1
78,0,0,78,left,tg35,0,1132.1019999999999,1
79,1,25,79,left,tg35,0,1357.292,0
80,0,0,80,left,tg35,0,1444.2630000000001,1
81,1,60,81,left,tg35,1,2395.616,1
82,0,0,82,left,tg35,0,8485.023,1
83,0,0,83,left,tg35,0,1601.404,1
84,0,0,84,left,tg35,0,7311.555,1
85,0,0,85,left,tg35,0,1951.6960000000001,1
86,1,15,86,left,tg35,0,1423.238,0
87,1,25,87,left,tg35,0,1774.027,0
88,1,10,88,left,tg35,0,1894.963,0
89,1,60,89,left,tg35,1,2198.507,1
90,0,0,90,left,tg35,0,2412.0029999999997,1
91,0,0,91,left,tg35,0,2063.572,1
92,0,0,92,left,tg35,0,23823.547000000002,1
93,1,25,93,left,tg35,1,2366.7349999999997,1
94,1,60,94,left,tg35,1,2153.095,1
95,1,10,95,left,tg35,0,1960.987,0
96,0,0,96,left,tg35,0,1938.578,1
97,0,0,97,left,tg35,0,1661.327,1
98,0,0,98,left,tg35,0,1208.919,1
99,0,0,99,left,tg35,0,1191.6670000000001,1
100,0,0,100,left,tg35,0,1782.712,1
101,0,0,101,left,tg35,0,1702.4109999999998,1
102,1,25,102,left,tg35,0,2259.369,0
103,0,0,103,left,tg35,0,4485.544,1
104,1,10,104,left,tg35,0,1707.808,0
105,1,15,105,left,tg35,0,9521.63,0
106,1,15,106,left,tg35,0,1976.736,0
107,0,0,107,left,tg35,0,1393.8980000000001,1
108,1,15,108,left,tg35,0,995.1370000000001,0
109,0,0,109,left,tg35,0,774.605,1
110,0,0,110,left,tg35,0,1220.614,1
111,1,10,111,left,tg35,0,1025.938,0
112,0,0,112,left,tg35,0,1126.268,1
113,0,0,113,left,tg35,0,865.7280000000001,1
114,0,0,114,left,tg35,0,977.425,1
115,0,0,115,left,tg35,0,995.8320000000001,1
116,0,0,116,left,tg35,0,1235.763,1
117,1,25,117,left,tg35,0,1444.5939999999998,0
118,0,0,118,left,tg35,0,1673.702,1
119,1,60,119,left,tg35,1,2354.9519999999998,1
120,0,0,120,left,tg35,0,1550.016,1
121,0,0,121,left,tg35,0,2436.985,1
122,1,25,122,left,tg35,0,1968.759,0
123,0,0,123,left,tg35,0,1224.386,1
124,1,60,124,left,tg35,1,2158.71,1
125,0,0,125,left,tg35,0,1713.862,1
126,1,10,126,left,tg35,0,1111.4930000000002,0
127,1,15,127,left,tg35,0,1734.876,0
128,0,0,128,left,tg35,0,3311.36,1
129,0,0,129,left,tg35,0,2210.55,1
130,0,0,130,left,tg35,0,1015.266,1
131,1,25,131,left,tg35,0,1277.516,0
132,1,60,132,left,tg35,1,2151.951,1
133,1,25,133,left,tg35,1,2289.182,1
134,0,0,134,left,tg35,0,2286.924,1
135,1,60,135,left,tg35,1,2740.3759999999997,1
136,0,0,136,left,tg35,0,1379.667,1
137,1,10,137,left,tg35,0,1063.059,0
138,0,0,138,left,tg35,0,1464.4379999999999,1
139,1,15,139,left,tg35,0,1502.384,0
140,0,0,140,left,tg35,0,1239.111,1
141,0,0,141,left,tg35,0,1471.061,1
142,0,0,142,left,tg35,0,1863.6760000000002,1
143,0,0,143,left,tg35,0,1785.966,1
144,0,0,144,left,tg35,0,1277.873,1
145,0,0,145,left,tg35,1,2295.592,0
146,0,0,146,left,tg35,0,5929.625,1
147,0,0,147,left,tg35,0,1317.536,1
148,1,10,148,left,tg35,0,1649.406,0
149,1,15,149,left,tg35,0,1457.9370000000001,0
150,1,25,150,left,tg35,0,1293.153,0
151,1,10,151,left,tg35,0,1007.325,0
152,1,60,152,left,tg35,1,3310.511,1
153,1,10,153,left,tg35,0,2403.683,0
154,1,15,154,left,tg35,0,8643.254,0
155,0,0,155,left,tg35,0,1708.531,1
156,0,0,156,left,tg35,0,2029.881,1
157,0,0,157,left,tg35,0,7108.965999999999,1
158,0,0,158,left,tg35,0,4894.423,1
159,1,25,159,left,tg35,1,5002.402,1
160,1,15,160,left,tg35,1,2656.727,1
161,0,0,161,left,tg35,0,1662.3870000000002,1
162,1,60,162,left,tg35,1,1861.3880000000001,1
163,0,0,163,left,tg35,0,1844.354,1
164,1,60,164,left,tg35,1,3117.235,1
165,0,0,165,left,tg35,1,14012.303,0
166,1,10,166,left,tg35,0,2616.3630000000003,0
167,0,0,167,left,tg35,0,1700.836,1
168,0,0,168,left,tg35,0,1902.463,1
169,1,15,169,left,tg35,1,2937.031,1
170,0,0,170,left,tg35,0,8471.536,1
171,0,0,171,left,tg35,0,1719.7389999999998,1
172,0,0,172,left,tg35,0,2267.453,1
173,0,0,173,left,tg35,0,2973.674,1
174,1,60,174,left,tg35,1,19842.306,1
175,0,0,175,left,tg35,0,5672.377,1
176,0,0,176,left,tg35,0,6945.195,1
177,1,15,177,left,tg35,0,2362.134,0
178,0,0,178,left,tg35,0,3777.21,1
179,1,25,179,left,tg35,0,26898.775,0
180,1,25,180,left,tg35,1,2631.418,1
181,1,15,181,left,tg35,0,9353.043,0
182,1,10,182,left,tg35,0,1494.2949999999998,0
183,0,0,183,left,tg35,0,3442.5099999999998,1
184,0,0,184,left,tg35,0,1354.1129999999998,1
185,1,15,185,left,tg35,0,1296.999,0
186,1,10,186,left,tg35,0,1826.139,0
187,1,60,187,left,tg35,1,1825.956,1
188,1,15,188,left,tg35,0,1898.758,0
189,0,0,189,left,tg35,0,1797.4099999999999,1
190,0,0,190,left,tg35,0,1473.3799999999999,1
191,1,10,191,left,tg35,0,8517.157,0
192,1,10,192,left,tg35,0,1535.635,0
193,1,15,193,left,tg35,0,1476.4930000000002,0
194,1,60,194,left,tg35,1,6887.013,1
195,1,15,195,left,tg35,0,2063.387,0
196,0,0,196,left,tg35,0,1575.104,1
197,1,60,197,left,tg35,1,4390.985,1
198,1,15,198,left,tg35,0,5022.832,0
199,1,25,199,left,tg35,1,2230.883,1
