,signal_present,signal_type,trial_num,button_position,subject_number,responses,rt,correct_resp
0,1,60,0,left,djb596,1,8499.879,1
1,1,10,1,left,djb596,1,3884.906,1
2,1,10,2,left,djb596,0,4723.854,0
3,1,15,3,left,djb596,0,6006.272,0
4,0,0,4,left,djb596,0,11595.618999999999,1
5,1,60,5,left,djb596,1,2966.323,1
6,0,0,6,left,djb596,0,3746.041,1
7,1,60,7,left,djb596,1,2054.322,1
8,1,25,8,left,djb596,1,1544.6709999999998,1
9,1,15,9,left,djb596,1,6537.987,1
10,0,0,10,left,djb596,0,2518.643,1
11,0,0,11,left,djb596,0,10192.125,1
12,0,0,12,left,djb596,0,1890.97,1
13,0,0,13,left,djb596,0,2716.473,1
14,1,15,14,left,djb596,1,4562.367,1
15,1,10,15,left,djb596,1,2817.455,1
16,0,0,16,left,djb596,1,4035.584,0
17,0,0,17,left,djb596,0,2486.2320000000004,1
18,0,0,18,left,djb596,0,1893.443,1
19,0,0,19,left,djb596,0,3943.587,1
20,1,25,20,left,djb596,1,4730.176,1
21,0,0,21,left,djb596,0,5255.26,1
22,0,0,22,left,djb596,0,1626.523,1
23,1,60,23,left,djb596,1,1353.465,1
24,1,60,24,left,djb596,1,954.455,1
25,0,0,25,left,djb596,0,2355.359,1
26,1,60,26,left,djb596,1,1047.173,1
27,1,10,27,left,djb596,0,2080.504,0
28,1,60,28,left,djb596,1,1117.375,1
29,0,0,29,left,djb596,1,674.594,0
30,1,15,30,left,djb596,0,1952.026,0
31,1,25,31,left,djb596,0,1248.642,0
32,0,0,32,left,djb596,1,239.93300000000002,0
33,0,0,33,left,djb596,0,4040.7140000000004,1
34,0,0,34,left,djb596,0,2227.47,1
35,1,60,35,left,djb596,1,1210.561,1
36,1,25,36,left,djb596,1,1365.346,1
37,1,25,37,left,djb596,1,1175.721,1
38,0,0,38,left,djb596,0,3009.2720000000004,1
39,1,10,39,left,djb596,1,5044.716,1
40,0,0,40,left,djb596,0,2157.412,1
41,1,25,41,left,djb596,1,1720.916,1
42,1,25,42,left,djb596,1,1589.013,1
43,1,60,43,left,djb596,1,1164.374,1
44,1,10,44,left,djb596,0,1899.629,0
45,1,25,45,left,djb596,1,1501.251,1
46,1,25,46,left,djb596,1,1208.253,1
47,0,0,47,left,djb596,0,2010.2319999999997,1
48,0,0,48,left,djb596,0,2265.585,1
49,0,0,49,left,djb596,1,1562.729,0
50,1,10,50,left,djb596,0,2494.723,0
51,1,25,51,left,djb596,1,2198.687,1
52,0,0,52,left,djb596,0,3006.497,1
53,0,0,53,left,djb596,0,1464.778,1
54,1,25,54,left,djb596,1,1213.586,1
55,0,0,55,left,djb596,0,1703.65,1
56,0,0,56,left,djb596,0,2714.452,1
57,0,0,57,left,djb596,0,1666.55,1
58,0,0,58,left,djb596,1,1676.9879999999998,0
59,1,25,59,left,djb596,1,1698.709,1
60,1,10,60,left,djb596,0,2989.425,0
61,1,15,61,left,djb596,0,1476.66,0
62,1,15,62,left,djb596,1,1886.395,1
63,1,15,63,left,djb596,0,2227.807,0
64,0,0,64,left,djb596,0,1664.35,1
65,1,10,65,left,djb596,0,1487.1000000000001,0
66,0,0,66,left,djb596,0,3416.8219999999997,1
67,0,0,67,left,djb596,0,2103.553,1
68,1,60,68,left,djb596,1,2124.799,1
69,0,0,69,left,djb596,0,2119.864,1
70,1,60,70,left,djb596,1,1083.39,1
71,0,0,71,left,djb596,0,1940.176,1
72,0,0,72,left,djb596,0,1653.5010000000002,1
73,0,0,73,left,djb596,0,1047.243,1
74,1,10,74,left,djb596,0,1946.089,0
75,1,15,75,left,djb596,1,1572.33,1
76,1,10,76,left,djb596,0,1569.05,0
77,0,0,77,left,djb596,0,1287.7,1
78,0,0,78,left,djb596,0,963.0609999999999,1
79,1,25,79,left,djb596,1,1263.987,1
80,0,0,80,left,djb596,1,2099.572,0
81,1,60,81,left,djb596,1,1179.735,1
82,0,0,82,left,djb596,0,1901.8129999999999,1
83,0,0,83,left,djb596,0,1225.603,1
84,0,0,84,left,djb596,0,1367.397,1
85,0,0,85,left,djb596,0,1954.242,1
86,1,15,86,left,djb596,1,1433.509,1
87,1,25,87,left,djb596,1,502.997,1
88,1,10,88,left,djb596,0,1866.98,0
89,1,60,89,left,djb596,1,1221.889,1
90,0,0,90,left,djb596,0,1341.859,1
91,0,0,91,left,djb596,0,979.687,1
92,0,0,92,left,djb596,0,1375.173,1
93,1,25,93,left,djb596,1,1403.46,1
94,1,60,94,left,djb596,1,1536.662,1
95,1,10,95,left,djb596,0,2466.8230000000003,0
96,0,0,96,left,djb596,0,1676.304,1
97,0,0,97,left,djb596,0,1361.15,1
98,0,0,98,left,djb596,0,3951.645,1
99,0,0,99,left,djb596,0,2482.671,1
100,0,0,100,left,djb596,0,2295.3929999999996,1
101,0,0,101,left,djb596,0,2147.498,1
102,1,25,102,left,djb596,1,1725.346,1
103,0,0,103,left,djb596,0,1898.727,1
104,1,10,104,left,djb596,0,1491.3829999999998,0
105,1,15,105,left,djb596,0,1253.512,0
106,1,15,106,left,djb596,0,1237.066,0
107,0,0,107,left,djb596,0,1192.5349999999999,1
108,1,15,108,left,djb596,0,874.2370000000001,0
109,0,0,109,left,djb596,0,971.365,1
110,0,0,110,left,djb596,1,2481.9719999999998,0
111,1,10,111,left,djb596,0,1819.068,0
112,0,0,112,left,djb596,0,1896.3000000000002,1
113,0,0,113,left,djb596,1,1553.057,0
114,0,0,114,left,djb596,0,1650.616,1
115,0,0,115,left,djb596,0,1743.997,1
116,0,0,116,left,djb596,0,1612.35,1
117,1,25,117,left,djb596,1,1417.113,1
118,0,0,118,left,djb596,1,2110.261,0
119,1,60,119,left,djb596,1,1137.1109999999999,1
120,0,0,120,left,djb596,0,1867.0359999999998,1
121,0,0,121,left,djb596,0,1209.0529999999999,1
122,1,25,122,left,djb596,1,2839.505,1
123,0,0,123,left,djb596,0,1096.97,1
124,1,60,124,left,djb596,1,1197.895,1
125,0,0,125,left,djb596,0,1295.5710000000001,1
126,1,10,126,left,djb596,0,1308.075,0
127,1,15,127,left,djb596,0,1192.542,0
128,0,0,128,left,djb596,0,1154.787,1
129,0,0,129,left,djb596,0,1138.7430000000002,1
130,0,0,130,left,djb596,0,1046.488,1
131,1,25,131,left,djb596,0,893.39,0
132,1,60,132,left,djb596,1,1172.776,1
133,1,25,133,left,djb596,1,979.5749999999999,1
134,0,0,134,left,djb596,0,2167.272,1
135,1,60,135,left,djb596,1,1132.371,1
136,0,0,136,left,djb596,0,1338.3529999999998,1
137,1,10,137,left,djb596,0,1101.936,0
138,0,0,138,left,djb596,0,1557.518,1
139,1,15,139,left,djb596,0,1805.481,0
140,0,0,140,left,djb596,1,1791.2740000000001,0
141,0,0,141,left,djb596,1,1450.4550000000002,0
142,0,0,142,left,djb596,0,2568.205,1
143,0,0,143,left,djb596,0,3221.581,1
144,0,0,144,left,djb596,1,2822.0190000000002,0
145,0,0,145,left,djb596,1,2715.75,0
146,0,0,146,left,djb596,0,1944.163,1
147,0,0,147,left,djb596,0,1348.824,1
148,1,10,148,left,djb596,1,1713.8739999999998,1
149,1,15,149,left,djb596,0,1556.12,0
150,1,25,150,left,djb596,1,1294.707,1
151,1,10,151,left,djb596,1,3247.656,1
152,1,60,152,left,djb596,1,1180.008,1
153,1,10,153,left,djb596,0,1649.404,0
154,1,15,154,left,djb596,0,1644.85,0
155,0,0,155,left,djb596,0,3435.025,1
156,0,0,156,left,djb596,0,2653.691,1
157,0,0,157,left,djb596,0,2029.0279999999998,1
158,0,0,158,left,djb596,1,1799.768,0
159,1,25,159,left,djb596,1,1300.999,1
160,1,15,160,left,djb596,0,1473.8960000000002,0
161,0,0,161,left,djb596,0,2140.265,1
162,1,60,162,left,djb596,1,1184.757,1
163,0,0,163,left,djb596,1,1615.685,0
164,1,60,164,left,djb596,1,1203.589,1
165,0,0,165,left,djb596,0,1690.964,1
166,1,10,166,left,djb596,1,1713.185,1
167,0,0,167,left,djb596,0,1299.135,1
168,0,0,168,left,djb596,0,1409.824,1
169,1,15,169,left,djb596,0,1675.3990000000001,0
170,0,0,170,left,djb596,0,2234.213,1
171,0,0,171,left,djb596,0,1436.719,1
172,0,0,172,left,djb596,1,1856.514,0
173,0,0,173,left,djb596,1,5.473999999999999,0
174,1,60,174,left,djb596,1,1141.5539999999999,1
175,0,0,175,left,djb596,0,1257.772,1
176,0,0,176,left,djb596,0,1029.436,1
177,1,15,177,left,djb596,0,1025.741,0
178,0,0,178,left,djb596,0,1908.452,1
179,1,25,179,left,djb596,1,1301.289,1
180,1,25,180,left,djb596,0,1050.234,0
181,1,15,181,left,djb596,0,1352.76,0
182,1,10,182,left,djb596,0,944.759,0
183,0,0,183,left,djb596,0,963.354,1
184,0,0,184,left,djb596,1,1238.636,0
185,1,15,185,left,djb596,1,1926.5140000000001,1
186,1,10,186,left,djb596,0,1387.06,0
187,1,60,187,left,djb596,1,1002.426,1
188,1,15,188,left,djb596,1,878.642,1
189,0,0,189,left,djb596,0,1067.078,1
190,0,0,190,left,djb596,0,1304.2169999999999,1
191,1,10,191,left,djb596,0,1568.4959999999999,0
192,1,10,192,left,djb596,1,1117.128,1
193,1,15,193,left,djb596,0,1447.211,0
194,1,60,194,left,djb596,0,644.321,0
195,1,15,195,left,djb596,1,760.8960000000001,1
196,0,0,196,left,djb596,0,1271.1779999999999,1
197,1,60,197,left,djb596,1,1250.231,1
198,1,15,198,left,djb596,1,1393.254,1
199,1,25,199,left,djb596,1,1156.289,1
