,signal_present,signal_type,trial_num,button_position,subject_number,responses,rt,correct_resp
0,1,60,0,right,qc540,1,20182.948,1
1,1,10,1,right,qc540,0,2797.454,0
2,1,10,2,right,qc540,0,2865.3529999999996,0
3,1,15,3,right,qc540,0,2025.889,0
4,0,0,4,right,qc540,0,2906.2450000000003,1
5,1,60,5,right,qc540,1,2564.55,1
6,0,0,6,right,qc540,0,5269.562,1
7,1,60,7,right,qc540,1,2150.166,1
8,1,25,8,right,qc540,1,1692.934,1
9,1,15,9,right,qc540,1,3721.875,1
10,0,0,10,right,qc540,0,5729.818,1
11,0,0,11,right,qc540,0,4369.169,1
12,0,0,12,right,qc540,0,2640.997,1
13,0,0,13,right,qc540,0,3851.4089999999997,1
14,1,15,14,right,qc540,0,11464.593,0
15,1,10,15,right,qc540,0,6370.94,0
16,0,0,16,right,qc540,0,11134.710000000001,1
17,0,0,17,right,qc540,0,8683.985,1
18,0,0,18,right,qc540,0,12489.839999999998,1
19,0,0,19,right,qc540,0,19236.602000000003,1
20,1,25,20,right,qc540,1,17224.479,1
21,0,0,21,right,qc540,1,4645.789,0
22,0,0,22,right,qc540,0,3324.6639999999998,1
23,1,60,23,right,qc540,1,2236.2470000000003,1
24,1,60,24,right,qc540,1,1370.837,1
25,0,0,25,right,qc540,0,2041.3239999999998,1
26,1,60,26,right,qc540,1,2051.476,1
27,1,10,27,right,qc540,0,2751.979,0
28,1,60,28,right,qc540,1,2030.034,1
29,0,0,29,right,qc540,0,6786.841,1
30,1,15,30,right,qc540,0,3411.4399999999996,0
31,1,25,31,right,qc540,1,2714.995,1
32,0,0,32,right,qc540,0,4476.672,1
33,0,0,33,right,qc540,0,4850.565,1
34,0,0,34,right,qc540,0,5532.542,1
35,1,60,35,right,qc540,1,2094.5429999999997,1
36,1,25,36,right,qc540,1,2626.004,1
37,1,25,37,right,qc540,1,1958.8680000000002,1
38,0,0,38,right,qc540,0,2429.303,1
39,1,10,39,right,qc540,0,3526.647,0
40,0,0,40,right,qc540,0,5222.045999999999,1
41,1,25,41,right,qc540,1,2381.4809999999998,1
42,1,25,42,right,qc540,1,5099.578,1
43,1,60,43,right,qc540,1,2048.791,1
44,1,10,44,right,qc540,0,2197.117,0
45,1,25,45,right,qc540,0,4011.159,0
46,1,25,46,right,qc540,1,2229.972,1
47,0,0,47,right,qc540,0,4713.6449999999995,1
48,0,0,48,right,qc540,0,3032.227,1
49,0,0,49,right,qc540,0,3351.245,1
50,1,10,50,right,qc540,0,2392.0029999999997,0
51,1,25,51,right,qc540,0,6542.1810000000005,0
52,0,0,52,right,qc540,0,3126.613,1
53,0,0,53,right,qc540,0,5966.446999999999,1
54,1,25,54,right,qc540,1,2533.1389999999997,1
55,0,0,55,right,qc540,0,3505.7619999999997,1
56,0,0,56,right,qc540,0,6514.687999999999,1
57,0,0,57,right,qc540,0,2272.951,1
58,0,0,58,right,qc540,0,4407.017,1
59,1,25,59,right,qc540,0,2303.4970000000003,0
60,1,10,60,right,qc540,0,2328.568,0
61,1,15,61,right,qc540,0,2152.38,0
62,1,15,62,right,qc540,0,3717.896,0
63,1,15,63,right,qc540,0,9512.470000000001,0
64,0,0,64,right,qc540,0,4394.237,1
65,1,10,65,right,qc540,0,3522.401,0
66,0,0,66,right,qc540,0,3547.659,1
67,0,0,67,right,qc540,0,2540.0209999999997,1
68,1,60,68,right,qc540,1,2394.529,1
69,0,0,69,right,qc540,0,2546.7360000000003,1
70,1,60,70,right,qc540,1,1905.733,1
71,0,0,71,right,qc540,0,2724.4739999999997,1
72,0,0,72,right,qc540,0,3429.315,1
73,0,0,73,right,qc540,0,3522.22,1
74,1,10,74,right,qc540,0,3218.238,0
75,1,15,75,right,qc540,1,3497.777,1
76,1,10,76,right,qc540,0,2169.5280000000002,0
77,0,0,77,right,qc540,0,2105.221,1
78,0,0,78,right,qc540,0,3910.152,1
79,1,25,79,right,qc540,1,3108.947,1
80,0,0,80,right,qc540,0,6865.481,1
81,1,60,81,right,qc540,1,2298.498,1
82,0,0,82,right,qc540,0,3957.19,1
83,0,0,83,right,qc540,0,4494.196,1
84,0,0,84,right,qc540,0,5332.734,1
85,0,0,85,right,qc540,0,11641.202,1
86,1,15,86,right,qc540,0,3618.583,0
87,1,25,87,right,qc540,0,2260.7560000000003,0
88,1,10,88,right,qc540,0,3172.1780000000003,0
89,1,60,89,right,qc540,1,2328.793,1
90,0,0,90,right,qc540,0,4025.015,1
91,0,0,91,right,qc540,1,8004.08,0
92,0,0,92,right,qc540,0,2423.154,1
93,1,25,93,right,qc540,1,2620.1189999999997,1
94,1,60,94,right,qc540,1,2066.2219999999998,1
95,1,10,95,right,qc540,0,3407.371,0
96,0,0,96,right,qc540,0,2566.401,1
97,0,0,97,right,qc540,0,2943.686,1
98,0,0,98,right,qc540,0,2716.747,1
99,0,0,99,right,qc540,0,6115.405,1
100,0,0,100,right,qc540,0,11253.151000000002,1
101,0,0,101,right,qc540,0,6963.092,1
102,1,25,102,right,qc540,1,12208.325,1
103,0,0,103,right,qc540,0,2354.962,1
104,1,10,104,right,qc540,0,2450.7889999999998,0
105,1,15,105,right,qc540,0,3909.458,0
106,1,15,106,right,qc540,0,2243.393,0
107,0,0,107,right,qc540,0,2451.9359999999997,1
108,1,15,108,right,qc540,0,2247.183,0
109,0,0,109,right,qc540,0,3558.7529999999997,1
110,0,0,110,right,qc540,0,7992.811,1
111,1,10,111,right,qc540,0,15224.477,0
112,0,0,112,right,qc540,0,2607.007,1
113,0,0,113,right,qc540,1,6783.772,0
114,0,0,114,right,qc540,0,4470.265,1
115,0,0,115,right,qc540,0,4464.344999999999,1
116,0,0,116,right,qc540,0,5317.515,1
117,1,25,117,right,qc540,1,2323.073,1
118,0,0,118,right,qc540,0,24264.737,1
119,1,60,119,right,qc540,1,3826.383,1
120,0,0,120,right,qc540,0,2987.039,1
121,0,0,121,right,qc540,0,5444.289000000001,1
122,1,25,122,right,qc540,1,8679.517,1
123,0,0,123,right,qc540,0,2795.0,1
124,1,60,124,right,qc540,1,2216.286,1
125,0,0,125,right,qc540,0,4883.611,1
126,1,10,126,right,qc540,0,2728.246,0
127,1,15,127,right,qc540,0,7338.089,0
128,0,0,128,right,qc540,0,2678.578,1
129,0,0,129,right,qc540,0,3079.098,1
130,0,0,130,right,qc540,0,3477.138,1
131,1,25,131,right,qc540,1,3436.188,1
132,1,60,132,right,qc540,1,1916.117,1
133,1,25,133,right,qc540,1,1941.505,1
134,0,0,134,right,qc540,0,1893.823,1
135,1,60,135,right,qc540,1,2511.0420000000004,1
136,0,0,136,right,qc540,0,2582.178,1
137,1,10,137,right,qc540,0,3677.7259999999997,0
138,0,0,138,right,qc540,1,17085.038999999997,0
139,1,15,139,right,qc540,0,2540.4990000000003,0
140,0,0,140,right,qc540,1,8907.723,0
141,0,0,141,right,qc540,0,6275.276,1
142,0,0,142,right,qc540,0,2408.738,1
143,0,0,143,right,qc540,0,1688.875,1
144,0,0,144,right,qc540,0,4274.154,1
145,0,0,145,right,qc540,0,7387.857999999999,1
146,0,0,146,right,qc540,1,9647.182,0
147,0,0,147,right,qc540,0,6609.102,1
148,1,10,148,right,qc540,0,2732.0730000000003,0
149,1,15,149,right,qc540,1,6965.773,1
150,1,25,150,right,qc540,1,2090.916,1
151,1,10,151,right,qc540,0,3051.437,0
152,1,60,152,right,qc540,1,2208.544,1
153,1,10,153,right,qc540,0,2041.6180000000002,0
154,1,15,154,right,qc540,0,1549.686,0
155,0,0,155,right,qc540,0,1377.8870000000002,1
156,0,0,156,right,qc540,0,2048.192,1
157,0,0,157,right,qc540,0,8578.473,1
158,0,0,158,right,qc540,0,4422.464,1
159,1,25,159,right,qc540,1,5456.496999999999,1
160,1,15,160,right,qc540,0,6825.522999999999,0
161,0,0,161,right,qc540,0,3230.2200000000003,1
162,1,60,162,right,qc540,1,2294.2070000000003,1
163,0,0,163,right,qc540,0,6671.819,1
164,1,60,164,right,qc540,1,2552.8559999999998,1
165,0,0,165,right,qc540,0,2376.88,1
166,1,10,166,right,qc540,0,4467.279,0
167,0,0,167,right,qc540,0,2463.937,1
168,0,0,168,right,qc540,0,3092.8360000000002,1
169,1,15,169,right,qc540,1,2592.488,1
170,0,0,170,right,qc540,0,1775.483,1
171,0,0,171,right,qc540,0,4321.442,1
172,0,0,172,right,qc540,0,5755.772999999999,1
173,0,0,173,right,qc540,0,4614.432,1
174,1,60,174,right,qc540,1,2137.488,1
175,0,0,175,right,qc540,0,2031.7759999999998,1
176,0,0,176,right,qc540,0,4400.409,1
177,1,15,177,right,qc540,0,3850.647,0
178,0,0,178,right,qc540,0,2366.787,1
179,1,25,179,right,qc540,1,2747.988,1
180,1,25,180,right,qc540,0,8080.154,0
181,1,15,181,right,qc540,0,2386.0679999999998,0
182,1,10,182,right,qc540,0,2295.4,0
183,0,0,183,right,qc540,0,2585.1259999999997,1
184,0,0,184,right,qc540,0,2313.143,1
185,1,15,185,right,qc540,1,2543.25,1
186,1,10,186,right,qc540,0,1519.565,0
187,1,60,187,right,qc540,1,1708.26,1
188,1,15,188,right,qc540,1,1757.5639999999999,1
189,0,0,189,right,qc540,0,1913.315,1
190,0,0,190,right,qc540,0,1880.173,1
191,1,10,191,right,qc540,0,7245.208,0
192,1,10,192,right,qc540,0,4263.379,0
193,1,15,193,right,qc540,0,5246.955,0
194,1,60,194,right,qc540,1,2201.32,1
195,1,15,195,right,qc540,0,2650.473,0
196,0,0,196,right,qc540,0,3486.548,1
197,1,60,197,right,qc540,1,1932.101,1
198,1,15,198,right,qc540,1,2902.085,1
199,1,25,199,right,qc540,1,1900.627,1
