,signal_present,signal_type,trial_num,button_position,subject_number,responses,rt,correct_resp
0,1,60,0,right,peo225,1,3180.663,1
1,1,10,1,right,peo225,1,6117.956,1
2,1,10,2,right,peo225,0,2654.883,0
3,1,15,3,right,peo225,1,5287.165,1
4,0,0,4,right,peo225,0,4277.534000000000,1
5,1,60,5,right,peo225,1,6059.5160000000000,1
6,0,0,6,right,peo225,1,6286.817,0
7,1,60,7,right,peo225,1,1532.213,1
8,1,25,8,right,peo225,1,1523.3790000000000,1
9,1,15,9,right,peo225,0,2370.4230000000000,0
10,0,0,10,right,peo225,0,3390.113,1
11,0,0,11,right,peo225,0,2999.896,1
12,0,0,12,right,peo225,0,1996.0360000000000,1
13,0,0,13,right,peo225,1,2522.375,0
14,1,15,14,right,peo225,0,2602.733,0
15,1,10,15,right,peo225,1,3359.159,1
16,0,0,16,right,peo225,1,3613.096,0
17,0,0,17,right,peo225,0,2244.267,1
18,0,0,18,right,peo225,0,2115.3900000000000,1
19,0,0,19,right,peo225,0,1775.902,1
20,1,25,20,right,peo225,0,2721.453,0
21,0,0,21,right,peo225,1,2380.271,0
22,0,0,22,right,peo225,0,2762.241,1
23,1,60,23,right,peo225,1,1743.786,1
24,1,60,24,right,peo225,1,1302.713,1
25,0,0,25,right,peo225,0,3794.889,1
26,1,60,26,right,peo225,1,1528.1230000000000,1
27,1,10,27,right,peo225,1,3224.447,1
28,1,60,28,right,peo225,1,1195.838,1
29,0,0,29,right,peo225,0,2523.7780000000000,1
30,1,15,30,right,peo225,1,5138.781,1
31,1,25,31,right,peo225,1,2281.478,1
32,0,0,32,right,peo225,0,2506.1200000000000,1
33,0,0,33,right,peo225,0,2627.4810000000000,1
34,0,0,34,right,peo225,0,4642.728,1
35,1,60,35,right,peo225,1,1727.3720000000000,1
36,1,25,36,right,peo225,1,1075.901,1
37,1,25,37,right,peo225,1,1156.444,1
38,0,0,38,right,peo225,0,1622.453,1
39,1,10,39,right,peo225,1,2385.8960000000000,1
40,0,0,40,right,peo225,0,3629.2200000000000,1
41,1,25,41,right,peo225,0,8912.785,0
42,1,25,42,right,peo225,1,2022.5370000000000,1
43,1,60,43,right,peo225,1,1434.7260000000000,1
44,1,10,44,right,peo225,1,5550.792,1
45,1,25,45,right,peo225,1,3289.2610000000000,1
46,1,25,46,right,peo225,0,3763.419,0
47,0,0,47,right,peo225,0,1526.305,1
48,0,0,48,right,peo225,0,1505.0270000000000,1
49,0,0,49,right,peo225,1,2660.9590000000000,0
50,1,10,50,right,peo225,0,3126.6150000000000,0
51,1,25,51,right,peo225,0,3967.8400000000000,0
52,0,0,52,right,peo225,0,3685.062,1
53,0,0,53,right,peo225,1,4443.505,0
54,1,25,54,right,peo225,1,1700.221,1
55,0,0,55,right,peo225,1,12476.222,0
56,0,0,56,right,peo225,1,2612.3760000000000,0
57,0,0,57,right,peo225,0,36893.991,1
58,0,0,58,right,peo225,1,2033.1190000000000,0
59,1,25,59,right,peo225,1,2407.433,1
60,1,10,60,right,peo225,0,2227.575,0
61,1,15,61,right,peo225,1,2292.964,1
62,1,15,62,right,peo225,1,4294.841,1
63,1,15,63,right,peo225,1,7038.362,1
64,0,0,64,right,peo225,0,4258.27,1
65,1,10,65,right,peo225,0,1896.4860000000000,0
66,0,0,66,right,peo225,0,1799.399,1
67,0,0,67,right,peo225,0,2624.442,1
68,1,60,68,right,peo225,1,1901.753,1
69,0,0,69,right,peo225,0,2713.667,1
70,1,60,70,right,peo225,1,2057.321,1
71,0,0,71,right,peo225,0,2986.144,1
72,0,0,72,right,peo225,1,2874.7110000000000,0
73,0,0,73,right,peo225,0,2817.581,1
74,1,10,74,right,peo225,0,3125.511,0
75,1,15,75,right,peo225,0,3140.6420000000000,0
76,1,10,76,right,peo225,0,2748.0820000000000,0
77,0,0,77,right,peo225,1,3884.308,0
78,0,0,78,right,peo225,1,2396.069,0
79,1,25,79,right,peo225,1,1740.34,1
80,0,0,80,right,peo225,1,1541.167,0
81,1,60,81,right,peo225,0,6261.274,0
82,0,0,82,right,peo225,1,3322.894,0
83,0,0,83,right,peo225,1,16994.888,0
84,0,0,84,right,peo225,1,2223.219,0
85,0,0,85,right,peo225,1,10433.099,0
86,1,15,86,right,peo225,1,1585.253,1
87,1,25,87,right,peo225,1,2329.956,1
88,1,10,88,right,peo225,0,4178.640000000000,0
89,1,60,89,right,peo225,1,1820.759,1
90,0,0,90,right,peo225,0,3643.64,1
91,0,0,91,right,peo225,0,3491.468,1
92,0,0,92,right,peo225,0,3442.196,1
93,1,25,93,right,peo225,1,1832.35,1
94,1,60,94,right,peo225,1,1228.8910000000000,1
95,1,10,95,right,peo225,1,1981.145,1
96,0,0,96,right,peo225,0,2491.171,1
97,0,0,97,right,peo225,1,3448.7170000000000,0
98,0,0,98,right,peo225,1,7469.533,0
99,0,0,99,right,peo225,0,2456.066,1
100,0,0,100,right,peo225,0,12134.293,1
101,0,0,101,right,peo225,1,16869.044000000000,0
102,1,25,102,right,peo225,1,19215.243000000000,1
103,0,0,103,right,peo225,1,7210.143,0
104,1,10,104,right,peo225,1,4067.953,1
105,1,15,105,right,peo225,1,3091.936,1
106,1,15,106,right,peo225,1,2893.088,1
107,0,0,107,right,peo225,0,2943.7130000000000,1
108,1,15,108,right,peo225,1,6955.568,1
109,0,0,109,right,peo225,1,2942.825,0
110,0,0,110,right,peo225,1,1713.4830000000000,0
111,1,10,111,right,peo225,1,2584.8300000000000,1
112,0,0,112,right,peo225,1,1791.2060000000000,0
113,0,0,113,right,peo225,1,1768.657,0
114,0,0,114,right,peo225,1,1293.298,0
115,0,0,115,right,peo225,1,1603.6700000000000,0
116,0,0,116,right,peo225,1,7675.466,0
117,1,25,117,right,peo225,1,1679.767,1
118,0,0,118,right,peo225,0,2405.254,1
119,1,60,119,right,peo225,1,1629.317,1
120,0,0,120,right,peo225,0,1988.864,1
121,0,0,121,right,peo225,0,1298.144,1
122,1,25,122,right,peo225,0,1950.501,0
123,0,0,123,right,peo225,0,2892.6150000000000,1
124,1,60,124,right,peo225,1,1621.322,1
125,0,0,125,right,peo225,1,4602.715,0
126,1,10,126,right,peo225,0,2553.818,0
127,1,15,127,right,peo225,0,14656.44,0
128,0,0,128,right,peo225,0,22249.466,1
129,0,0,129,right,peo225,1,2151.194,0
130,0,0,130,right,peo225,1,368.63800000000000,0
131,1,25,131,right,peo225,1,1620.431,1
132,1,60,132,right,peo225,1,1327.807,1
133,1,25,133,right,peo225,0,6041.48,0
134,0,0,134,right,peo225,0,2150.523,1
135,1,60,135,right,peo225,0,4371.998,0
136,0,0,136,right,peo225,0,3769.375,1
137,1,10,137,right,peo225,1,4960.403,1
138,0,0,138,right,peo225,0,3184.695,1
139,1,15,139,right,peo225,0,3387.0270000000000,0
140,0,0,140,right,peo225,0,3057.604,1
141,0,0,141,right,peo225,1,3388.241,0
142,0,0,142,right,peo225,0,5818.643,1
143,0,0,143,right,peo225,1,11137.025,0
144,0,0,144,right,peo225,0,2310.1440000000000,1
145,0,0,145,right,peo225,1,2823.1890000000000,0
146,0,0,146,right,peo225,1,2200.961,0
147,0,0,147,right,peo225,0,7007.742,1
148,1,10,148,right,peo225,0,10152.566,0
149,1,15,149,right,peo225,1,3241.775,1
150,1,25,150,right,peo225,1,1728.259,1
151,1,10,151,right,peo225,1,3702.815,1
152,1,60,152,right,peo225,1,1496.789,1
153,1,10,153,right,peo225,0,6004.454,0
154,1,15,154,right,peo225,1,9201.277,1
155,0,0,155,right,peo225,0,4972.3240000000000,1
156,0,0,156,right,peo225,0,9155.278000000000,1
157,0,0,157,right,peo225,1,2891.6120000000000,0
158,0,0,158,right,peo225,0,4018.2030000000000,1
159,1,25,159,right,peo225,1,2253.319,1
160,1,15,160,right,peo225,1,10117.793000000000,1
161,0,0,161,right,peo225,1,3470.076,0
162,1,60,162,right,peo225,1,1616.8400000000000,1
163,0,0,163,right,peo225,1,3178.0910000000000,0
164,1,60,164,right,peo225,1,1388.932,1
165,0,0,165,right,peo225,0,3075.0190000000000,1
166,1,10,166,right,peo225,1,2829.213,1
167,0,0,167,right,peo225,1,3441.621,0
168,0,0,168,right,peo225,0,2708.838,1
169,1,15,169,right,peo225,1,2160.602,1
170,0,0,170,right,peo225,0,2645.038,1
171,0,0,171,right,peo225,1,2498.894,0
172,0,0,172,right,peo225,1,14136.720000000000,0
173,0,0,173,right,peo225,1,4247.724,0
174,1,60,174,right,peo225,1,1775.1700000000000,1
175,0,0,175,right,peo225,0,2406.8400000000000,1
176,0,0,176,right,peo225,1,2581.503,0
177,1,15,177,right,peo225,0,2444.2530000000000,0
178,0,0,178,right,peo225,0,1499.938,1
179,1,25,179,right,peo225,0,4173.015,0
180,1,25,180,right,peo225,1,1791.345,1
181,1,15,181,right,peo225,1,1546.012,1
182,1,10,182,right,peo225,0,3532.937,0
183,0,0,183,right,peo225,0,11220.145,1
184,0,0,184,right,peo225,1,4034.759,0
185,1,15,185,right,peo225,1,1399.1260000000000,1
186,1,10,186,right,peo225,1,4041.318,1
187,1,60,187,right,peo225,1,1421.151,1
188,1,15,188,right,peo225,0,1807.028,0
189,0,0,189,right,peo225,1,2643.972,0
190,0,0,190,right,peo225,0,2510.1200000000000,1
191,1,10,191,right,peo225,1,12327.39,1
192,1,10,192,right,peo225,0,7291.146000000000,0
193,1,15,193,right,peo225,1,3871.5660000000000,1
194,1,60,194,right,peo225,1,2530.397,1
195,1,15,195,right,peo225,0,2503.4010000000000,0
196,0,0,196,right,peo225,1,7778.333,0
197,1,60,197,right,peo225,1,1181.686,1
198,1,15,198,right,peo225,1,2079.895,1
199,1,25,199,right,peo225,0,1648.568,0