,signal_present,signal_type,trial_num,button_position,subject_number,responses,rt,correct_resp
0,1,60,0,left,jwk438,1,6161.556,1
1,1,10,1,left,jwk438,0,11045.035,0
2,1,10,2,left,jwk438,0,1251.478,0
3,1,15,3,left,jwk438,0,1414.315,0
4,0,0,4,left,jwk438,0,1751.299,1
5,1,60,5,left,jwk438,1,1758.723,1
6,0,0,6,left,jwk438,0,1215.782,1
7,1,60,7,left,jwk438,1,1193.388,1
8,1,25,8,left,jwk438,1,1018.02,1
9,1,15,9,left,jwk438,0,5579.182000000001,0
10,0,0,10,left,jwk438,0,1044.7,1
11,0,0,11,left,jwk438,0,1613.522,1
12,0,0,12,left,jwk438,0,900.855,1
13,0,0,13,left,jwk438,0,751.829,1
14,1,15,14,left,jwk438,0,793.708,0
15,1,10,15,left,jwk438,0,2640.2450000000003,0
16,0,0,16,left,jwk438,0,1737.903,1
17,0,0,17,left,jwk438,0,1003.0269999999999,1
18,0,0,18,left,jwk438,0,985.694,1
19,0,0,19,left,jwk438,0,862.7099999999999,1
20,1,25,20,left,jwk438,0,917.083,0
21,0,0,21,left,jwk438,1,2083.862,0
22,0,0,22,left,jwk438,0,1215.24,1
23,1,60,23,left,jwk438,1,1152.8719999999998,1
24,1,60,24,left,jwk438,1,1066.1309999999999,1
25,0,0,25,left,jwk438,0,1571.981,1
26,1,60,26,left,jwk438,1,1666.366,1
27,1,10,27,left,jwk438,0,2402.489,0
28,1,60,28,left,jwk438,1,1147.225,1
29,0,0,29,left,jwk438,0,2037.263,1
30,1,15,30,left,jwk438,0,1081.633,0
31,1,25,31,left,jwk438,1,1658.703,1
32,0,0,32,left,jwk438,0,2903.736,1
33,0,0,33,left,jwk438,0,2377.02,1
34,0,0,34,left,jwk438,0,1755.828,1
35,1,60,35,left,jwk438,1,1317.051,1
36,1,25,36,left,jwk438,1,1941.244,1
37,1,25,37,left,jwk438,1,1855.2630000000001,1
38,0,0,38,left,jwk438,0,2232.2639999999997,1
39,1,10,39,left,jwk438,0,1702.2949999999998,0
40,0,0,40,left,jwk438,0,1731.723,1
41,1,25,41,left,jwk438,1,1441.326,1
42,1,25,42,left,jwk438,1,1473.763,1
43,1,60,43,left,jwk438,1,1311.9460000000001,1
44,1,10,44,left,jwk438,0,1313.129,0
45,1,25,45,left,jwk438,0,836.9870000000001,0
46,1,25,46,left,jwk438,1,1689.1190000000001,1
47,0,0,47,left,jwk438,0,1778.719,1
48,0,0,48,left,jwk438,0,1052.7269999999999,1
49,0,0,49,left,jwk438,0,1432.7479999999998,1
50,1,10,50,left,jwk438,0,1452.598,0
51,1,25,51,left,jwk438,0,1577.615,0
52,0,0,52,left,jwk438,0,1624.952,1
53,0,0,53,left,jwk438,0,1225.296,1
54,1,25,54,left,jwk438,1,1909.4759999999999,1
55,0,0,55,left,jwk438,0,1417.651,1
56,0,0,56,left,jwk438,1,3949.439,0
57,0,0,57,left,jwk438,0,1301.099,1
58,0,0,58,left,jwk438,0,969.536,1
59,1,25,59,left,jwk438,1,1399.7839999999999,1
60,1,10,60,left,jwk438,0,1211.316,0
61,1,15,61,left,jwk438,0,1048.519,0
62,1,15,62,left,jwk438,0,4473.3910000000005,0
63,1,15,63,left,jwk438,0,1385.25,0
64,0,0,64,left,jwk438,0,951.003,1
65,1,10,65,left,jwk438,0,708.01,0
66,0,0,66,left,jwk438,0,651.8810000000001,1
67,0,0,67,left,jwk438,0,712.8050000000001,1
68,1,60,68,left,jwk438,1,1196.315,1
69,0,0,69,left,jwk438,0,1867.488,1
70,1,60,70,left,jwk438,1,1945.714,1
71,0,0,71,left,jwk438,0,1328.184,1
72,0,0,72,left,jwk438,0,2750.931,1
73,0,0,73,left,jwk438,0,871.53,1
74,1,10,74,left,jwk438,0,845.448,0
75,1,15,75,left,jwk438,0,635.169,0
76,1,10,76,left,jwk438,0,1280.6029999999998,0
77,0,0,77,left,jwk438,0,1132.748,1
78,0,0,78,left,jwk438,0,744.36,1
79,1,25,79,left,jwk438,0,785.8349999999999,0
80,0,0,80,left,jwk438,0,1754.166,1
81,1,60,81,left,jwk438,1,1511.3049999999998,1
82,0,0,82,left,jwk438,0,1428.666,1
83,0,0,83,left,jwk438,0,801.771,1
84,0,0,84,left,jwk438,0,696.871,1
85,0,0,85,left,jwk438,0,1140.9759999999999,1
86,1,15,86,left,jwk438,0,1152.4289999999999,0
87,1,25,87,left,jwk438,0,996.472,0
88,1,10,88,left,jwk438,0,2070.49,0
89,1,60,89,left,jwk438,1,1188.949,1
90,0,0,90,left,jwk438,0,1349.524,1
91,0,0,91,left,jwk438,0,2130.115,1
92,0,0,92,left,jwk438,0,741.235,1
93,1,25,93,left,jwk438,1,1384.896,1
94,1,60,94,left,jwk438,1,1218.224,1
95,1,10,95,left,jwk438,0,1152.809,0
96,0,0,96,left,jwk438,0,1333.73,1
97,0,0,97,left,jwk438,0,743.58,1
98,0,0,98,left,jwk438,0,670.603,1
99,0,0,99,left,jwk438,0,866.546,1
100,0,0,100,left,jwk438,0,1597.131,1
101,0,0,101,left,jwk438,0,1337.68,1
102,1,25,102,left,jwk438,0,948.7860000000001,0
103,0,0,103,left,jwk438,0,1251.088,1
104,1,10,104,left,jwk438,0,671.3090000000001,0
105,1,15,105,left,jwk438,0,703.5160000000001,0
106,1,15,106,left,jwk438,0,869.985,0
107,0,0,107,left,jwk438,0,707.816,1
108,1,15,108,left,jwk438,0,2048.799,0
109,0,0,109,left,jwk438,0,773.909,1
110,0,0,110,left,jwk438,0,737.167,1
111,1,10,111,left,jwk438,0,868.438,0
112,0,0,112,left,jwk438,0,1237.008,1
113,0,0,113,left,jwk438,0,655.577,1
114,0,0,114,left,jwk438,0,794.0749999999999,1
115,0,0,115,left,jwk438,0,849.441,1
116,0,0,116,left,jwk438,0,833.3190000000001,1
117,1,25,117,left,jwk438,1,1440.461,1
118,0,0,118,left,jwk438,0,1648.7430000000002,1
119,1,60,119,left,jwk438,1,1214.248,1
120,0,0,120,left,jwk438,0,1493.264,1
121,0,0,121,left,jwk438,0,723.879,1
122,1,25,122,left,jwk438,0,663.942,0
123,0,0,123,left,jwk438,0,632.5070000000001,1
124,1,60,124,left,jwk438,1,1227.166,1
125,0,0,125,left,jwk438,0,1426.656,1
126,1,10,126,left,jwk438,0,1001.964,0
127,1,15,127,left,jwk438,0,1283.219,0
128,0,0,128,left,jwk438,0,1030.543,1
129,0,0,129,left,jwk438,0,856.236,1
130,0,0,130,left,jwk438,0,766.651,1
131,1,25,131,left,jwk438,0,1663.615,0
132,1,60,132,left,jwk438,1,1192.0420000000001,1
133,1,25,133,left,jwk438,1,1025.874,1
134,0,0,134,left,jwk438,0,1900.76,1
135,1,60,135,left,jwk438,1,1793.911,1
136,0,0,136,left,jwk438,0,1094.276,1
137,1,10,137,left,jwk438,0,663.165,0
138,0,0,138,left,jwk438,0,630.17,1
139,1,15,139,left,jwk438,0,683.648,0
140,0,0,140,left,jwk438,0,912.512,1
141,0,0,141,left,jwk438,1,2855.714,0
142,0,0,142,left,jwk438,0,1702.836,1
143,0,0,143,left,jwk438,0,1560.608,1
144,0,0,144,left,jwk438,0,819.7149999999999,1
145,0,0,145,left,jwk438,0,765.95,1
146,0,0,146,left,jwk438,0,561.163,1
147,0,0,147,left,jwk438,0,940.2080000000001,1
148,1,10,148,left,jwk438,0,788.517,0
149,1,15,149,left,jwk438,0,710.449,0
150,1,25,150,left,jwk438,1,1775.4950000000001,1
151,1,10,151,left,jwk438,0,658.555,0
152,1,60,152,left,jwk438,1,1210.081,1
153,1,10,153,left,jwk438,0,1433.508,0
154,1,15,154,left,jwk438,0,1315.0790000000002,0
155,0,0,155,left,jwk438,0,813.072,1
156,0,0,156,left,jwk438,0,1304.496,1
157,0,0,157,left,jwk438,0,843.191,1
158,0,0,158,left,jwk438,0,766.9169999999999,1
159,1,25,159,left,jwk438,1,2346.962,1
160,1,15,160,left,jwk438,0,1476.165,0
161,0,0,161,left,jwk438,0,780.989,1
162,1,60,162,left,jwk438,1,1632.3190000000002,1
163,0,0,163,left,jwk438,0,13247.265000000001,1
164,1,60,164,left,jwk438,1,1419.7640000000001,1
165,0,0,165,left,jwk438,0,1088.441,1
166,1,10,166,left,jwk438,0,780.876,0
167,0,0,167,left,jwk438,0,712.7379999999999,1
168,0,0,168,left,jwk438,0,933.268,1
169,1,15,169,left,jwk438,0,1055.802,0
170,0,0,170,left,jwk438,0,660.005,1
171,0,0,171,left,jwk438,0,1089.75,1
172,0,0,172,left,jwk438,0,888.029,1
173,0,0,173,left,jwk438,0,806.826,1
174,1,60,174,left,jwk438,1,1135.342,1
175,0,0,175,left,jwk438,0,1135.944,1
176,0,0,176,left,jwk438,0,696.8760000000001,1
177,1,15,177,left,jwk438,0,623.2990000000001,0
178,0,0,178,left,jwk438,0,634.362,1
179,1,25,179,left,jwk438,1,1674.146,1
180,1,25,180,left,jwk438,0,875.035,0
181,1,15,181,left,jwk438,0,919.907,0
182,1,10,182,left,jwk438,0,877.826,0
183,0,0,183,left,jwk438,0,705.7280000000001,1
184,0,0,184,left,jwk438,0,1091.349,1
185,1,15,185,left,jwk438,0,604.151,0
186,1,10,186,left,jwk438,0,1406.018,0
187,1,60,187,left,jwk438,1,1535.409,1
188,1,15,188,left,jwk438,0,4684.612,0
189,0,0,189,left,jwk438,0,943.505,1
190,0,0,190,left,jwk438,0,3124.593,1
191,1,10,191,left,jwk438,0,925.4970000000001,0
192,1,10,192,left,jwk438,0,1611.429,0
193,1,15,193,left,jwk438,0,798.236,0
194,1,60,194,left,jwk438,1,1409.1860000000001,1
195,1,15,195,left,jwk438,0,1087.7079999999999,0
196,0,0,196,left,jwk438,0,1029.466,1
197,1,60,197,left,jwk438,1,1349.7259999999999,1
198,1,15,198,left,jwk438,1,1566.537,1
199,1,25,199,left,jwk438,1,2096.361,1
