,signal_present,signal_type,trial_num,button_position,subject_number,responses,rt,correct_resp
0,1,60,0,right,toa220,1,6874.392,1
1,1,10,1,right,toa220,0,7900.716,0
2,1,10,2,right,toa220,0,1838.546,0
3,1,15,3,right,toa220,0,2517.29,0
4,0,0,4,right,toa220,0,2849.158,1
5,1,60,5,right,toa220,1,2141.345,1
6,0,0,6,right,toa220,0,2436.245,1
7,1,60,7,right,toa220,1,1275.616,1
8,1,25,8,right,toa220,1,1116.217,1
9,1,15,9,right,toa220,0,2554.685,0
10,0,0,10,right,toa220,0,2948.549,1
11,0,0,11,right,toa220,0,1724.354,1
12,0,0,12,right,toa220,0,1442.449,1
13,0,0,13,right,toa220,1,22636.579,0
14,1,15,14,right,toa220,1,1500.1,1
15,1,10,15,right,toa220,0,1612.1460000000002,0
16,0,0,16,right,toa220,0,973.322,1
17,0,0,17,right,toa220,0,863.488,1
18,0,0,18,right,toa220,0,1112.403,1
19,0,0,19,right,toa220,0,1189.983,1
20,1,25,20,right,toa220,1,5796.949,1
21,0,0,21,right,toa220,1,1566.933,0
22,0,0,22,right,toa220,0,1814.057,1
23,1,60,23,right,toa220,1,1112.413,1
24,1,60,24,right,toa220,1,936.183,1
25,0,0,25,right,toa220,0,1925.199,1
26,1,60,26,right,toa220,1,1000.8779999999999,1
27,1,10,27,right,toa220,0,1283.727,0
28,1,60,28,right,toa220,1,1095.051,1
29,0,0,29,right,toa220,0,1094.746,1
30,1,15,30,right,toa220,0,963.758,0
31,1,25,31,right,toa220,1,2806.533,1
32,0,0,32,right,toa220,0,1137.9109999999998,1
33,0,0,33,right,toa220,0,956.819,1
34,0,0,34,right,toa220,0,753.323,1
35,1,60,35,right,toa220,1,1042.0069999999998,1
36,1,25,36,right,toa220,1,1054.9660000000001,1
37,1,25,37,right,toa220,1,884.9449999999999,1
38,0,0,38,right,toa220,0,1537.1889999999999,1
39,1,10,39,right,toa220,0,1746.164,0
40,0,0,40,right,toa220,0,1327.306,1
41,1,25,41,right,toa220,0,125.67600000000002,0
42,1,25,42,right,toa220,0,67.168,0
43,1,60,43,right,toa220,1,416.17199999999997,1
44,1,10,44,right,toa220,1,1226.7920000000001,1
45,1,25,45,right,toa220,1,1287.808,1
46,1,25,46,right,toa220,1,1245.375,1
47,0,0,47,right,toa220,0,1837.205,1
48,0,0,48,right,toa220,0,1081.669,1
49,0,0,49,right,toa220,0,1600.512,1
50,1,10,50,right,toa220,0,2041.4119999999998,0
51,1,25,51,right,toa220,1,2583.4959999999996,1
52,0,0,52,right,toa220,1,2011.907,0
53,0,0,53,right,toa220,1,5063.645,0
54,1,25,54,right,toa220,1,955.491,1
55,0,0,55,right,toa220,0,1469.1860000000001,1
56,0,0,56,right,toa220,0,1246.188,1
57,0,0,57,right,toa220,0,948.55,1
58,0,0,58,right,toa220,0,2822.4700000000003,1
59,1,25,59,right,toa220,1,1600.726,1
60,1,10,60,right,toa220,0,1821.278,0
61,1,15,61,right,toa220,0,3279.614,0
62,1,15,62,right,toa220,0,1471.74,0
63,1,15,63,right,toa220,0,8.528,0
64,0,0,64,right,toa220,0,1310.4199999999998,1
65,1,10,65,right,toa220,0,1714.9769999999999,0
66,0,0,66,right,toa220,0,1039.204,1
67,0,0,67,right,toa220,0,1065.6680000000001,1
68,1,60,68,right,toa220,1,1087.809,1
69,0,0,69,right,toa220,0,1733.0220000000002,1
70,1,60,70,right,toa220,1,1273.8220000000001,1
71,0,0,71,right,toa220,0,1087.06,1
72,0,0,72,right,toa220,0,800.453,1
73,0,0,73,right,toa220,0,1162.854,1
74,1,10,74,right,toa220,0,788.2810000000001,0
75,1,15,75,right,toa220,0,897.524,0
76,1,10,76,right,toa220,0,863.558,0
77,0,0,77,right,toa220,0,857.687,1
78,0,0,78,right,toa220,0,970.303,1
79,1,25,79,right,toa220,1,16013.922999999999,1
80,0,0,80,right,toa220,0,1851.842,1
81,1,60,81,right,toa220,0,1127.1979999999999,0
82,0,0,82,right,toa220,0,1329.4029999999998,1
83,0,0,83,right,toa220,0,1122.6529999999998,1
84,0,0,84,right,toa220,0,1019.2220000000001,1
85,0,0,85,right,toa220,0,702.74,1
86,1,15,86,right,toa220,1,1466.7330000000002,1
87,1,25,87,right,toa220,1,1115.6109999999999,1
88,1,10,88,right,toa220,0,1890.742,0
89,1,60,89,right,toa220,1,1183.931,1
90,0,0,90,right,toa220,0,1275.778,1
91,0,0,91,right,toa220,0,1069.3120000000001,1
92,0,0,92,right,toa220,0,926.674,1
93,1,25,93,right,toa220,0,831.069,0
94,1,60,94,right,toa220,1,1236.821,1
95,1,10,95,right,toa220,0,984.884,0
96,0,0,96,right,toa220,0,811.159,1
97,0,0,97,right,toa220,0,807.49,1
98,0,0,98,right,toa220,0,939.393,1
99,0,0,99,right,toa220,0,818.7149999999999,1
100,0,0,100,right,toa220,0,1247.4940000000001,1
101,0,0,101,right,toa220,0,1132.215,1
102,1,25,102,right,toa220,1,2672.1639999999998,1
103,0,0,103,right,toa220,0,2004.315,1
104,1,10,104,right,toa220,0,1114.009,0
105,1,15,105,right,toa220,0,757.159,0
106,1,15,106,right,toa220,0,904.772,0
107,0,0,107,right,toa220,0,757.811,1
108,1,15,108,right,toa220,0,871.62,0
109,0,0,109,right,toa220,0,1304.3290000000002,1
110,0,0,110,right,toa220,0,1220.76,1
111,1,10,111,right,toa220,0,1023.9050000000001,0
112,0,0,112,right,toa220,0,857.68,1
113,0,0,113,right,toa220,0,9690.887,1
114,0,0,114,right,toa220,0,1326.195,1
115,0,0,115,right,toa220,0,922.7520000000001,1
116,0,0,116,right,toa220,0,941.289,1
117,1,25,117,right,toa220,1,1184.601,1
118,0,0,118,right,toa220,0,1039.917,1
119,1,60,119,right,toa220,1,1430.116,1
120,0,0,120,right,toa220,0,1084.794,1
121,0,0,121,right,toa220,0,1384.268,1
122,1,25,122,right,toa220,0,1021.1250000000001,0
123,0,0,123,right,toa220,0,788.048,1
124,1,60,124,right,toa220,1,1560.096,1
125,0,0,125,right,toa220,0,1616.454,1
126,1,10,126,right,toa220,0,1556.748,0
127,1,15,127,right,toa220,0,2122.9460000000004,0
128,0,0,128,right,toa220,0,2044.938,1
129,0,0,129,right,toa220,0,1759.838,1
130,0,0,130,right,toa220,0,1640.1399999999999,1
131,1,25,131,right,toa220,1,1396.257,1
132,1,60,132,right,toa220,1,974.1030000000001,1
133,1,25,133,right,toa220,1,1000.8509999999999,1
134,0,0,134,right,toa220,0,1322.297,1
135,1,60,135,right,toa220,0,1069.5900000000001,0
136,0,0,136,right,toa220,0,1136.088,1
137,1,10,137,right,toa220,0,769.562,0
138,0,0,138,right,toa220,0,1669.988,1
139,1,15,139,right,toa220,0,817.086,0
140,0,0,140,right,toa220,0,1034.8,1
141,0,0,141,right,toa220,0,1232.4630000000002,1
142,0,0,142,right,toa220,0,788.145,1
143,0,0,143,right,toa220,0,911.978,1
144,0,0,144,right,toa220,0,878.4929999999999,1
145,0,0,145,right,toa220,0,809.6759999999999,1
146,0,0,146,right,toa220,0,737.072,1
147,0,0,147,right,toa220,0,798.6529999999999,1
148,1,10,148,right,toa220,0,706.9830000000001,0
149,1,15,149,right,toa220,0,786.803,0
150,1,25,150,right,toa220,1,1208.075,1
151,1,10,151,right,toa220,0,2173.8379999999997,0
152,1,60,152,right,toa220,1,1213.1879999999999,1
153,1,10,153,right,toa220,0,1913.4189999999999,0
154,1,15,154,right,toa220,1,5682.294,1
155,0,0,155,right,toa220,0,2669.845,1
156,0,0,156,right,toa220,0,1233.732,1
157,0,0,157,right,toa220,0,718.202,1
158,0,0,158,right,toa220,0,784.674,1
159,1,25,159,right,toa220,1,1646.46,1
160,1,15,160,right,toa220,0,1920.415,0
161,0,0,161,right,toa220,0,1165.707,1
162,1,60,162,right,toa220,1,8700.013,1
163,0,0,163,right,toa220,0,1100.115,1
164,1,60,164,right,toa220,1,1434.424,1
165,0,0,165,right,toa220,0,1895.138,1
166,1,10,166,right,toa220,0,1123.8410000000001,0
167,0,0,167,right,toa220,0,778.1360000000001,1
168,0,0,168,right,toa220,0,773.915,1
169,1,15,169,right,toa220,0,985.139,0
170,0,0,170,right,toa220,0,836.9100000000001,1
171,0,0,171,right,toa220,0,669.868,1
172,0,0,172,right,toa220,0,712.9309999999999,1
173,0,0,173,right,toa220,0,2193.192,1
174,1,60,174,right,toa220,1,1141.212,1
175,0,0,175,right,toa220,0,2243.804,1
176,0,0,176,right,toa220,0,1454.107,1
177,1,15,177,right,toa220,0,1662.96,0
178,0,0,178,right,toa220,1,4429.97,0
179,1,25,179,right,toa220,0,842.835,0
180,1,25,180,right,toa220,1,1581.345,1
181,1,15,181,right,toa220,0,966.521,0
182,1,10,182,right,toa220,1,700.422,1
183,0,0,183,right,toa220,0,1370.203,1
184,0,0,184,right,toa220,0,923.741,1
185,1,15,185,right,toa220,1,1140.8780000000002,1
186,1,10,186,right,toa220,0,995.803,0
187,1,60,187,right,toa220,1,1795.985,1
188,1,15,188,right,toa220,1,3427.789,1
189,0,0,189,right,toa220,0,1642.0729999999999,1
190,0,0,190,right,toa220,0,1269.803,1
191,1,10,191,right,toa220,0,1164.4479999999999,0
192,1,10,192,right,toa220,0,899.543,0
193,1,15,193,right,toa220,0,1027.4080000000001,0
194,1,60,194,right,toa220,1,1203.32,1
195,1,15,195,right,toa220,0,35157.695,0
196,0,0,196,right,toa220,0,3862.934,1
197,1,60,197,right,toa220,1,1930.7479999999998,1
198,1,15,198,right,toa220,1,1670.622,1
199,1,25,199,right,toa220,1,2689.496,1
