,signal_present,signal_type,trial_num,button_position,subject_number,responses,rt,correct_resp
0,1,60,0,left,ab8200,1,8083.748,1
1,1,10,1,left,ab8200,1,6077.923,1
2,1,10,2,left,ab8200,0,4045.4040000000005,0
3,1,15,3,left,ab8200,0,5601.408,0
4,0,0,4,left,ab8200,0,7364.772,1
5,1,60,5,left,ab8200,1,4273.195000000001,1
6,0,0,6,left,ab8200,0,9458.306,1
7,1,60,7,left,ab8200,1,3770.315,1
8,1,25,8,left,ab8200,1,3548.009,1
9,1,15,9,left,ab8200,1,7117.824,1
10,0,0,10,left,ab8200,0,8052.402000000001,1
11,0,0,11,left,ab8200,0,8010.184,1
12,0,0,12,left,ab8200,0,6724.972,1
13,0,0,13,left,ab8200,1,9742.208,0
14,1,15,14,left,ab8200,1,3921.751,1
15,1,10,15,left,ab8200,0,9603.047999999999,0
16,0,0,16,left,ab8200,1,20370.802,0
17,0,0,17,left,ab8200,0,12441.785,1
18,0,0,18,left,ab8200,0,16992.576,1
19,0,0,19,left,ab8200,0,24833.352000000003,1
20,1,25,20,left,ab8200,1,15007.880000000001,1
21,0,0,21,left,ab8200,1,13861.459,0
22,0,0,22,left,ab8200,1,18151.966,0
23,1,60,23,left,ab8200,1,3291.897,1
24,1,60,24,left,ab8200,1,3164.2610000000004,1
25,0,0,25,left,ab8200,0,7192.893,1
26,1,60,26,left,ab8200,1,4631.387,1
27,1,10,27,left,ab8200,0,42893.276999999995,0
28,1,60,28,left,ab8200,1,3088.073,1
29,0,0,29,left,ab8200,0,3693.38,1
30,1,15,30,left,ab8200,1,3815.572,1
31,1,25,31,left,ab8200,1,3282.298,1
32,0,0,32,left,ab8200,0,5659.652,1
33,0,0,33,left,ab8200,0,14698.53,1
34,0,0,34,left,ab8200,0,3803.5420000000004,1
35,1,60,35,left,ab8200,1,2647.953,1
36,1,25,36,left,ab8200,1,4359.025,1
37,1,25,37,left,ab8200,1,4685.689,1
38,0,0,38,left,ab8200,0,4563.809,1
39,1,10,39,left,ab8200,0,17948.612,0
40,0,0,40,left,ab8200,0,9044.704,1
41,1,25,41,left,ab8200,1,2796.991,1
42,1,25,42,left,ab8200,1,3959.3669999999997,1
43,1,60,43,left,ab8200,1,1656.147,1
44,1,10,44,left,ab8200,0,6127.512000000001,0
45,1,25,45,left,ab8200,0,2614.643,0
46,1,25,46,left,ab8200,1,2609.112,1
47,0,0,47,left,ab8200,0,10490.494999999999,1
48,0,0,48,left,ab8200,0,17090.713,1
49,0,0,49,left,ab8200,0,13091.826,1
50,1,10,50,left,ab8200,0,20044.801,0
51,1,25,51,left,ab8200,1,3549.039,1
52,0,0,52,left,ab8200,1,27230.782000000003,0
53,0,0,53,left,ab8200,1,5753.756,0
54,1,25,54,left,ab8200,1,1632.233,1
55,0,0,55,left,ab8200,0,4102.192999999999,1
56,0,0,56,left,ab8200,0,19780.784,1
57,0,0,57,left,ab8200,0,4668.742,1
58,0,0,58,left,ab8200,1,16288.8,0
59,1,25,59,left,ab8200,0,10669.041,0
60,1,10,60,left,ab8200,0,4152.466,0
61,1,15,61,left,ab8200,0,8952.809000000001,0
62,1,15,62,left,ab8200,1,13774.488,1
63,1,15,63,left,ab8200,0,6831.782999999999,0
64,0,0,64,left,ab8200,0,8544.571,1
65,1,10,65,left,ab8200,0,7823.578,0
66,0,0,66,left,ab8200,1,6514.672,0
67,0,0,67,left,ab8200,0,14327.508,1
68,1,60,68,left,ab8200,1,3300.9719999999998,1
69,0,0,69,left,ab8200,0,6387.946999999999,1
70,1,60,70,left,ab8200,1,2790.588,1
71,0,0,71,left,ab8200,0,28991.790999999997,1
72,0,0,72,left,ab8200,0,7585.13,1
73,0,0,73,left,ab8200,0,2821.649,1
74,1,10,74,left,ab8200,1,4762.781999999999,1
75,1,15,75,left,ab8200,1,2064.2459999999996,1
76,1,10,76,left,ab8200,0,4122.448,0
77,0,0,77,left,ab8200,0,11028.407,1
78,0,0,78,left,ab8200,0,4760.376,1
79,1,25,79,left,ab8200,1,2730.907,1
80,0,0,80,left,ab8200,0,7572.276,1
81,1,60,81,left,ab8200,1,2650.7740000000003,1
82,0,0,82,left,ab8200,0,3960.848,1
83,0,0,83,left,ab8200,0,8388.073999999999,1
84,0,0,84,left,ab8200,1,5290.041,0
85,0,0,85,left,ab8200,0,6121.804,1
86,1,15,86,left,ab8200,1,3339.054,1
87,1,25,87,left,ab8200,1,4248.488,1
88,1,10,88,left,ab8200,0,3790.791,0
89,1,60,89,left,ab8200,1,2671.059,1
90,0,0,90,left,ab8200,0,3118.628,1
91,0,0,91,left,ab8200,0,3098.2599999999998,1
92,0,0,92,left,ab8200,0,2594.195,1
93,1,25,93,left,ab8200,1,2246.44,1
94,1,60,94,left,ab8200,1,1917.38,1
95,1,10,95,left,ab8200,0,3614.659,0
96,0,0,96,left,ab8200,0,4225.713,1
97,0,0,97,left,ab8200,0,2323.5480000000002,1
98,0,0,98,left,ab8200,0,2640.5769999999998,1
99,0,0,99,left,ab8200,0,2971.7030000000004,1
100,0,0,100,left,ab8200,0,3993.574,1
101,0,0,101,left,ab8200,0,4415.477,1
102,1,25,102,left,ab8200,1,2711.451,1
103,0,0,103,left,ab8200,0,4522.146000000001,1
104,1,10,104,left,ab8200,0,4029.458,0
105,1,15,105,left,ab8200,1,5915.556,1
106,1,15,106,left,ab8200,0,5513.16,0
107,0,0,107,left,ab8200,0,3955.419,1
108,1,15,108,left,ab8200,0,2275.9179999999997,0
109,0,0,109,left,ab8200,0,5067.608,1
110,0,0,110,left,ab8200,1,4792.3640000000005,0
111,1,10,111,left,ab8200,0,3457.58,0
112,0,0,112,left,ab8200,0,2781.676,1
113,0,0,113,left,ab8200,1,4793.119,0
114,0,0,114,left,ab8200,0,4327.541,1
115,0,0,115,left,ab8200,0,3899.4,1
116,0,0,116,left,ab8200,0,4012.1960000000004,1
117,1,25,117,left,ab8200,1,3479.609,1
118,0,0,118,left,ab8200,0,3422.107,1
119,1,60,119,left,ab8200,1,2386.926,1
120,0,0,120,left,ab8200,0,8287.893,1
121,0,0,121,left,ab8200,1,3780.246,0
122,1,25,122,left,ab8200,1,1838.977,1
123,0,0,123,left,ab8200,0,3384.413,1
124,1,60,124,left,ab8200,1,2284.728,1
125,0,0,125,left,ab8200,0,3986.358,1
126,1,10,126,left,ab8200,0,4028.3179999999998,0
127,1,15,127,left,ab8200,0,2741.204,0
128,0,0,128,left,ab8200,0,4552.498,1
129,0,0,129,left,ab8200,0,2014.4669999999999,1
130,0,0,130,left,ab8200,0,5887.9710000000005,1
131,1,25,131,left,ab8200,1,2818.615,1
132,1,60,132,left,ab8200,1,1750.576,1
133,1,25,133,left,ab8200,1,1624.303,1
134,0,0,134,left,ab8200,0,4221.619,1
135,1,60,135,left,ab8200,1,4438.227000000001,1
136,0,0,136,left,ab8200,0,3368.3230000000003,1
137,1,10,137,left,ab8200,0,3324.611,0
138,0,0,138,left,ab8200,0,2183.761,1
139,1,15,139,left,ab8200,0,2775.6409999999996,0
140,0,0,140,left,ab8200,0,3178.103,1
141,0,0,141,left,ab8200,0,6316.9890000000005,1
142,0,0,142,left,ab8200,0,2418.26,1
143,0,0,143,left,ab8200,1,4986.487,0
144,0,0,144,left,ab8200,1,1759.621,0
145,0,0,145,left,ab8200,0,4388.851,1
146,0,0,146,left,ab8200,0,4871.951,1
147,0,0,147,left,ab8200,1,3575.946,0
148,1,10,148,left,ab8200,1,2105.085,1
149,1,15,149,left,ab8200,1,2301.495,1
150,1,25,150,left,ab8200,1,1652.525,1
151,1,10,151,left,ab8200,0,3243.1079999999997,0
152,1,60,152,left,ab8200,1,2274.918,1
153,1,10,153,left,ab8200,0,2654.638,0
154,1,15,154,left,ab8200,1,2104.759,1
155,0,0,155,left,ab8200,0,2216.4,1
156,0,0,156,left,ab8200,0,1851.321,1
157,0,0,157,left,ab8200,0,1839.38,1
158,0,0,158,left,ab8200,0,2188.107,1
159,1,25,159,left,ab8200,1,2316.9230000000002,1
160,1,15,160,left,ab8200,1,5096.227,1
161,0,0,161,left,ab8200,0,2464.643,1
162,1,60,162,left,ab8200,1,1950.342,1
163,0,0,163,left,ab8200,0,2395.307,1
164,1,60,164,left,ab8200,1,2398.961,1
165,0,0,165,left,ab8200,0,2216.801,1
166,1,10,166,left,ab8200,0,3176.041,0
167,0,0,167,left,ab8200,0,4549.051,1
168,0,0,168,left,ab8200,0,7373.526,1
169,1,15,169,left,ab8200,0,1103.692,0
170,0,0,170,left,ab8200,0,4002.5550000000003,1
171,0,0,171,left,ab8200,1,5327.9220000000005,0
172,0,0,172,left,ab8200,1,4475.856000000001,0
173,0,0,173,left,ab8200,0,6252.576999999999,1
174,1,60,174,left,ab8200,1,2818.303,1
175,0,0,175,left,ab8200,0,3061.1929999999998,1
176,0,0,176,left,ab8200,1,2870.099,0
177,1,15,177,left,ab8200,0,3042.846,0
178,0,0,178,left,ab8200,0,1751.266,1
179,1,25,179,left,ab8200,1,2559.8230000000003,1
180,1,25,180,left,ab8200,1,2782.5060000000003,1
181,1,15,181,left,ab8200,0,2686.831,0
182,1,10,182,left,ab8200,0,3782.812,0
183,0,0,183,left,ab8200,1,4217.764,0
184,0,0,184,left,ab8200,0,2831.217,1
185,1,15,185,left,ab8200,1,2456.402,1
186,1,10,186,left,ab8200,0,2135.807,0
187,1,60,187,left,ab8200,1,2177.91,1
188,1,15,188,left,ab8200,1,2273.356,1
189,0,0,189,left,ab8200,0,2658.749,1
190,0,0,190,left,ab8200,0,4648.708,1
191,1,10,191,left,ab8200,0,1586.133,0
192,1,10,192,left,ab8200,1,3403.254,1
193,1,15,193,left,ab8200,1,1844.9379999999999,1
194,1,60,194,left,ab8200,1,1298.497,1
195,1,15,195,left,ab8200,0,2529.916,0
196,0,0,196,left,ab8200,0,1498.391,1
197,1,60,197,left,ab8200,1,1802.331,1
198,1,15,198,left,ab8200,1,3193.795,1
199,1,25,199,left,ab8200,1,1740.961,1
